{
  "resourceType": "Bundle",
  "type": "transaction",
  "entry": [
    {
      "resource": {
        "resourceType": "Patient",
        "id": "patient-ff7a9167",
        "identifier": [
          {
            "value": "1174024",
            "system": "urn:oid:1.2.250.1.211.10.200.1",
            "type": {
              "coding": [
                {
                  "system": "http://terminology.hl7.org/CodeSystem/v2-0203",
                  "code": "PI"
                }
              ]
            }
          },
          {
            "value": "1121717802492545833548",
            "system": "urn:oid:1.2.250.1.213.1.4.2",
            "type": {
              "coding": [
                {
                  "system": "http://terminology.hl7.org/CodeSystem/v2-0203",
                  "code": "INS-C"
                }
              ]
            }
          },
          {
            "value": "160059932710027",
            "system": "urn:oid:1.2.250.1.213.1.4.8",
            "type": {
              "coding": [
                {
                  "system": "http://terminology.hl7.org/CodeSystem/v2-0203",
                  "code": "INS"
                }
              ]
            }
          }
        ],
        "name": [
          {
            "family": "YEHOUESSI",
            "given": [
              "HERMAS",
              "JEAN",
              "RICHARD"
            ],
            "use": "official"
          }
        ],
        "address": [
          {
            "line": [
              "8  AVENUE CONDORCET"
            ],
            "city": "FORT DE FRANCE",
            "postalCode": "97200",
            "country": "FRA",
            "use": "home"
          },
          {
            "city": "PORTO NUEVO",
            "postalCode": "99327",
            "country": "BEN",
            "use": "birth"
          }
        ],
        "contact": [
          {
            "relationship": [
              {
                "coding": [
                  {
                    "system": "http://terminology.hl7.org/CodeSystem/v3-RoleCode",
                    "code": "other"
                  }
                ]
              }
            ],
            "name": {
              "family": "YEHOUESSI",
              "given": [
                "ELENA"
              ]
            }
          }
        ],
        "birthDate": "1960-05-09",
        "gender": "male"
      },
      "request": {
        "method": "POST",
        "url": "Patient"
      }
    },
    {
      "resource": {
        "resourceType": "Encounter",
        "id": "encounter-6885b5f6",
        "status": "in-progress",
        "class": {
          "system": "http://terminology.hl7.org/CodeSystem/v3-ActCode",
          "code": "IMP"
        },
        "subject": {
          "reference": "Patient/patient-ff7a9167"
        },
        "period": {
          "start": "2025-04-17T05:04:00+00:00"
        },
        "extension": [
          {
            "url": "https://fhirhub.health/fhir/StructureDefinition/zbe-episodeIdentifier",
            "valueString": "ZBE"
          },
          {
            "url": "https://fhirhub.health/fhir/StructureDefinition/zbe-admissionDate",
            "valueString": "EH_11549556_1^MCK"
          }
        ]
      },
      "request": {
        "method": "POST",
        "url": "Encounter"
      }
    },
    {
      "resource": {
        "resourceType": "Organization",
        "id": "organization-977309a6",
        "identifier": [
          {
            "system": "http://terminology.hl7.fr/CodeSystem/TRE-G08-TypeIdentifiantStructure",
            "value": "972"
          }
        ],
        "name": "972"
      },
      "request": {
        "method": "POST",
        "url": "Organization"
      }
    },
    {
      "resource": {
        "resourceType": "Coverage",
        "id": "coverage-d2130507",
        "status": "active",
        "beneficiary": {
          "reference": "Patient/patient-ff7a9167"
        },
        "payor": [
          {
            "reference": "Organization/organization-977309a6"
          }
        ],
        "period": {
          "end": "2025-12-31"
        }
      },
      "request": {
        "method": "POST",
        "url": "Coverage"
      }
    }
  ]
}