{"data":{"resourceType":"Bundle","id":"bundle-1746719782059","type":"transaction","timestamp":"2025-05-08T15:56:22.059Z","entry":[{"fullUrl":"urn:uuid:patient-10101","resource":{"resourceType":"Patient","id":"patient-10101","identifier":[{"value":"10101","system":"urn:oid:1.2.250.1.71.4.2.7","type":{"coding":[{"system":"http://terminology.hl7.org/CodeSystem/v2-0203","code":"PI","display":"Identifiant patient interne"}]}}],"name":[{"use":"official","family":"DUPONT"},{"use":"official","family":"JEAN"},{"use":"official","family":"M"}],"gender":"male","birthDate":"1976-04-25","telecom":[{"value":"0033612345678","use":"home","system":"phone"}],"address":[{"use":"home","type":"both","line":["25 RUE DES FLEURS"]},{"use":"home","type":"both","line":["PARIS"]},{"use":"home","type":"both","line":["75001"]},{"use":"home","type":"both","line":["FR"]}],"maritalStatus":null,"contact":[]},"request":{"method":"POST","url":"Patient"}},{"fullUrl":"urn:uuid:location-813a6c0f","resource":{"resourceType":"Location","id":"location-813a6c0f","status":"active","name":"ROOM202"},"request":{"method":"POST","url":"Location"}},{"fullUrl":"urn:uuid:99e8decf-34b9-4886-bdcb-4646badd3dbd","resource":{"resourceType":"Encounter","id":"99e8decf-34b9-4886-bdcb-4646badd3dbd","status":"in-progress","class":{"system":"http://terminology.hl7.org/CodeSystem/v3-ActCode","code":"AMB","display":"ambulatory"},"subject":{"reference":"urn:uuid:patient-10101"},"extension":[{"url":"https://interop.esante.gouv.fr/ig/fhir/core/StructureDefinition/fr-mode-prise-en-charge","valueCodeableConcept":{"coding":[{"system":"https://mos.esante.gouv.fr/NOS/TRE_R213-ModePriseEnCharge/FHIR/TRE-R213-ModePriseEnCharge","code":"CONSULT","display":"Consultation externe"}]}}],"location":[{"location":{"reference":"urn:uuid:location-813a6c0f","display":"ROOM202"}}]},"request":{"method":"POST","url":"Encounter"}},{"fullUrl":"urn:uuid:organization-org-receiving-application","resource":{"resourceType":"Organization","id":"organization-org-receiving-application","identifier":[{"system":"urn:oid:1.2.250.1.71.4.2.2","value":"org-receiving-application"}],"name":"RECEIVING_APPLICATION","active":true},"request":{"method":"POST","url":"Organization"}},{"fullUrl":"urn:uuid:organization-org-20230901140000","resource":{"resourceType":"Organization","id":"organization-org-20230901140000","identifier":[{"system":"urn:oid:1.2.250.1.71.4.2.2","value":"org-20230901140000"}],"name":"Établissement destinataire","active":true},"request":{"method":"POST","url":"Organization"}}],"_meta":{"conversionTime":7,"fromCache":false,"cachedAt":1746719782064}},"createdAt":1746719782064,"expiresAt":1746806182064,"lastAccessed":1746719782064,"accessCount":1}