{
  "resourceType": "Bundle",
  "type": "transaction",
  "id": "dce742f4-251f-44f8-b524-d8af6f370ca3",
  "timestamp": "2025-04-27T16:14:29.656Z",
  "meta": {
    "profile": [
      "https://interop.esante.gouv.fr/ig/fhir/hl7/StructureDefinition/hl7-bundle"
    ],
    "security": [
      {
        "system": "https://mos.esante.gouv.fr/NOS/TRE_R283-Confidentiality/FHIR/TRE-R283-Confidentiality",
        "code": "N",
        "display": "Normal"
      }
    ],
    "tag": [
      {
        "system": "https://mos.esante.gouv.fr/NOS/TRE_R287-FormatCode/FHIR/TRE-R287-FormatCode",
        "code": "urn:ans:ci-sis:hl7:v2.5",
        "display": "HL7 v2.5 converti en FHIR R4 (ANS)"
      }
    ]
  },
  "entry": [
    {
      "fullUrl": "https://fhir.org/FHIRHub/Patient/8ee918d7-19a6-44b1-86b4-b06d4c83996a",
      "resource": {
        "resourceType": "Patient",
        "id": "8ee918d7-19a6-44b1-86b4-b06d4c83996a",
        "identifier": [
          {
            "system": "urn:MRN",
            "value": "12345",
            "type": {
              "coding": [
                {
                  "system": "http://terminology.hl7.org/CodeSystem/v2-0203",
                  "code": "MR",
                  "display": "Medical record number"
                }
              ]
            },
            "assigner": {
              "display": "MRN"
            }
          }
        ],
        "name": [
          {
            "family": "DOE",
            "given": [
              "JOHN",
              "A"
            ]
          }
        ],
        "birthDate": "1980-01-01",
        "gender": "male",
        "address": [
          {
            "line": [
              "123 MAIN ST"
            ],
            "city": "ANYTOWN",
            "state": "NY",
            "postalCode": "12345",
            "country": "FRA",
            "extension": [
              {
                "url": "https://interop.esante.gouv.fr/ig/fhir/annuaire/StructureDefinition/commune-cog-code",
                "valueString": "12000"
              }
            ]
          }
        ],
        "telecom": [
          {
            "system": "phone",
            "value": "555-123-4567",
            "use": "home"
          },
          {
            "system": "phone",
            "value": "555-234-5678",
            "use": "work"
          }
        ]
      },
      "request": {
        "method": "POST",
        "url": "Patient"
      }
    },
    {
      "fullUrl": "https://fhir.org/FHIRHub/Person/dcfe855d-b085-4192-9832-ceb622b2c77b",
      "resource": {
        "resourceType": "Person",
        "id": "dcfe855d-b085-4192-9832-ceb622b2c77b",
        "name": [
          {
            "family": "DOE",
            "given": [
              "JOHN",
              "A"
            ]
          }
        ],
        "gender": "male",
        "birthDate": "1980-01-01",
        "telecom": [
          {
            "system": "phone",
            "value": "555-123-4567",
            "use": "home"
          },
          {
            "system": "phone",
            "value": "555-234-5678",
            "use": "work"
          }
        ],
        "address": [
          {
            "line": [
              "123 MAIN ST"
            ],
            "city": "ANYTOWN",
            "state": "NY",
            "postalCode": "12345",
            "country": "FRA",
            "extension": [
              {
                "url": "https://interop.esante.gouv.fr/ig/fhir/annuaire/StructureDefinition/commune-cog-code",
                "valueString": "12000"
              }
            ]
          }
        ],
        "link": [
          {
            "target": {
              "reference": "https://fhir.org/FHIRHub/Patient/8ee918d7-19a6-44b1-86b4-b06d4c83996a"
            }
          }
        ]
      },
      "request": {
        "method": "POST",
        "url": "Person"
      }
    },
    {
      "fullUrl": "https://fhir.org/FHIRHub/Practitioner/d28e5aa1-4c9f-475d-97cb-8cb643c63e82",
      "resource": {
        "resourceType": "Practitioner",
        "id": "d28e5aa1-4c9f-475d-97cb-8cb643c63e82",
        "identifier": [
          {
            "system": "http://example.org/fhir/sid/provider-id",
            "value": "004777"
          }
        ],
        "name": [
          {
            "family": "ATTEND",
            "given": [
              "AARON"
            ]
          }
        ]
      },
      "request": {
        "method": "POST",
        "url": "Practitioner"
      }
    },
    {
      "fullUrl": "https://fhir.org/FHIRHub/Encounter/a80029c7-a441-4e6d-953d-851d011bd0fc",
      "resource": {
        "resourceType": "Encounter",
        "id": "a80029c7-a441-4e6d-953d-851d011bd0fc",
        "status": "finished",
        "class": {
          "system": "http://terminology.hl7.org/CodeSystem/v3-ActCode",
          "code": "I",
          "display": "Inpatient"
        },
        "subject": {
          "reference": "https://fhir.org/FHIRHub/Patient/8ee918d7-19a6-44b1-86b4-b06d4c83996a"
        },
        "period": {},
        "location": [
          {
            "location": {
              "display": "2000^2012^01"
            }
          }
        ],
        "participant": [
          {
            "individual": {
              "reference": "https://fhir.org/FHIRHub/Practitioner/d28e5aa1-4c9f-475d-97cb-8cb643c63e82"
            }
          }
        ]
      },
      "request": {
        "method": "POST",
        "url": "Encounter"
      }
    },
    {
      "fullUrl": "https://fhir.org/FHIRHub/Organization/2aef9da7-3c6f-4e75-846f-4b1013e5df2f",
      "resource": {
        "resourceType": "Organization",
        "id": "2aef9da7-3c6f-4e75-846f-4b1013e5df2f",
        "identifier": [
          {
            "system": "http://terminology.hl7.org/CodeSystem/v3-HL7",
            "value": "SENDING_FACILITY"
          }
        ],
        "name": "SENDING_FACILITY"
      },
      "request": {
        "method": "POST",
        "url": "Organization"
      }
    },
    {
      "fullUrl": "https://fhir.org/FHIRHub/RelatedPerson/b2a5df3e-1b01-4b64-ac08-10ac93451d06",
      "resource": {
        "resourceType": "RelatedPerson",
        "id": "b2a5df3e-1b01-4b64-ac08-10ac93451d06",
        "active": true,
        "patient": {
          "reference": "https://fhir.org/FHIRHub/Patient/8ee918d7-19a6-44b1-86b4-b06d4c83996a"
        },
        "relationship": [
          {
            "coding": [
              {
                "system": "http://terminology.hl7.org/CodeSystem/v3-RoleCode",
                "code": "SPS",
                "display": "SPO"
              }
            ]
          }
        ],
        "name": [
          {
            "family": "DOE",
            "given": [
              "JANE"
            ]
          }
        ],
        "address": [
          {
            "line": [
              "555-123-4567"
            ],
            "country": ""
          }
        ]
      },
      "request": {
        "method": "POST",
        "url": "RelatedPerson"
      }
    }
  ]
}