{
  "resourceType": "Bundle",
  "type": "transaction",
  "id": "6c3ca17b-b88f-42fb-9168-bff7fb667834",
  "timestamp": "2025-04-27T01:38:50.355Z",
  "entry": [
    {
      "fullUrl": "http://example.org/fhir/Patient/6eb8b902-793c-4a25-b924-da4f4705a19b",
      "resource": {
        "resourceType": "Patient",
        "id": "6eb8b902-793c-4a25-b924-da4f4705a19b",
        "identifier": [
          {
            "system": "urn:oid:1.2.250.1.211.10.200.1",
            "value": "1174024",
            "type": {
              "coding": [
                {
                  "system": "http://terminology.hl7.org/CodeSystem/v2-0203",
                  "code": "PI",
                  "display": "Patient internal identifier"
                }
              ]
            },
            "assigner": {
              "display": "MCK"
            }
          },
          {
            "system": "urn:oid:1.2.250.1.213.1.4.2",
            "value": "1121717802492545833548",
            "type": {
              "coding": [
                {
                  "system": "http://terminology.hl7.org/CodeSystem/v2-0203",
                  "code": "INS-C",
                  "display": "Insurance Card"
                }
              ]
            },
            "assigner": {
              "display": "ASIP-SANTE-INS-C"
            }
          },
          {
            "system": "urn:oid:1.2.250.1.213.1.4.8",
            "value": "160059932710027",
            "type": {
              "coding": [
                {
                  "system": "http://terminology.hl7.org/CodeSystem/v2-0203",
                  "code": "INS",
                  "display": "INS"
                }
              ]
            },
            "assigner": {
              "display": "ASIP-SANTE-INS-NIR"
            }
          }
        ],
        "name": [
          {
            "family": "YEHOUESSI",
            "given": [
              "HERMAS JEAN RICHARD"
            ]
          }
        ],
        "birthDate": "1960-05-09T00:00:00Z",
        "gender": "male",
        "address": [
          {
            "line": [
              "8  AVENUE CONDORCET"
            ],
            "city": "FORT DE FRANCE",
            "state": "",
            "postalCode": "97200",
            "country": "FRA",
            "use": "home"
          }
        ],
        "telecom": [
          {
            "system": "phone",
            "value": "0696039637",
            "use": "home"
          },
          {
            "system": "phone",
            "value": "0596000093",
            "use": "home"
          }
        ]
      },
      "request": {
        "method": "POST",
        "url": "Patient"
      }
    },
    {
      "fullUrl": "http://example.org/fhir/Person/6075fd2a-2678-43a7-8bf1-b3926e4f9949",
      "resource": {
        "resourceType": "Person",
        "id": "6075fd2a-2678-43a7-8bf1-b3926e4f9949",
        "name": [
          {
            "family": "YEHOUESSI",
            "given": [
              "HERMAS JEAN RICHARD"
            ]
          }
        ],
        "gender": "male",
        "birthDate": "1960-05-09T00:00:00Z",
        "telecom": [
          {
            "system": "phone",
            "value": "0696039637",
            "use": "home"
          },
          {
            "system": "phone",
            "value": "0596000093",
            "use": "home"
          }
        ],
        "address": [
          {
            "line": [
              "8  AVENUE CONDORCET"
            ],
            "city": "FORT DE FRANCE",
            "state": "",
            "postalCode": "97200",
            "country": "FRA",
            "use": "home"
          }
        ],
        "link": [
          {
            "target": {
              "reference": "http://example.org/fhir/Patient/6eb8b902-793c-4a25-b924-da4f4705a19b"
            }
          }
        ]
      },
      "request": {
        "method": "POST",
        "url": "Person"
      }
    },
    {
      "fullUrl": "http://example.org/fhir/Encounter/54998876-5ad6-4e26-be67-fe52380fe434",
      "resource": {
        "resourceType": "Encounter",
        "id": "54998876-5ad6-4e26-be67-fe52380fe434",
        "status": "completed",
        "class": [
          {
            "system": "http://terminology.hl7.org/CodeSystem/v3-ActCode",
            "code": "I",
            "display": "Inpatient"
          }
        ],
        "subject": {
          "reference": "http://example.org/fhir/Patient/6eb8b902-793c-4a25-b924-da4f4705a19b"
        },
        "period": {
          "start": "2025-04-17T05:04:00Z"
        }
      },
      "request": {
        "method": "POST",
        "url": "Encounter"
      }
    },
    {
      "fullUrl": "http://example.org/fhir/Organization/d4c49787-2267-4ced-8213-e0e8e7f3bacb",
      "resource": {
        "resourceType": "Organization",
        "id": "d4c49787-2267-4ced-8213-e0e8e7f3bacb",
        "identifier": [
          {
            "system": "http://terminology.hl7.org/CodeSystem/v3-HL7",
            "value": "EAI"
          }
        ],
        "name": "EAI"
      },
      "request": {
        "method": "POST",
        "url": "Organization"
      }
    },
    {
      "fullUrl": "http://example.org/fhir/Coverage/f20f4b1e-a62a-452a-9f15-e4aff3d30d3b",
      "resource": {
        "resourceType": "Coverage",
        "id": "f20f4b1e-a62a-452a-9f15-e4aff3d30d3b",
        "status": "active",
        "kind": "insurance",
        "type": {
          "coding": [
            {
              "system": "http://terminology.hl7.org/CodeSystem/v3-ActCode",
              "code": "EHCPOL",
              "display": "Extended healthcare"
            }
          ]
        },
        "subscriberId": [
          "160059932710027"
        ],
        "beneficiary": {
          "reference": "http://example.org/fhir/Patient/6eb8b902-793c-4a25-b924-da4f4705a19b"
        },
        "period": {
          "end": "2025-12-31"
        }
      },
      "request": {
        "method": "POST",
        "url": "Coverage"
      }
    },
    {
      "fullUrl": "http://example.org/fhir/RelatedPerson/ab376e80-c4f4-4017-87e1-75c73aeffebe",
      "resource": {
        "resourceType": "RelatedPerson",
        "id": "ab376e80-c4f4-4017-87e1-75c73aeffebe",
        "active": true,
        "patient": {
          "reference": "http://example.org/fhir/Patient/6eb8b902-793c-4a25-b924-da4f4705a19b"
        },
        "relationship": [
          {
            "coding": [
              {
                "system": "http://terminology.hl7.org/CodeSystem/v3-RoleCode",
                "code": "EXT",
                "display": "Contact"
              }
            ]
          }
        ],
        "name": [
          {
            "family": "YEHOUESSI",
            "given": [
              "ELENA"
            ]
          }
        ],
        "telecom": [],
        "address": [
          {
            "line": [],
            "city": "",
            "state": "",
            "postalCode": "",
            "country": "UNK",
            "use": "home"
          },
          {
            "line": [],
            "city": "",
            "state": "",
            "postalCode": "",
            "country": "UNK",
            "use": "home"
          }
        ]
      },
      "request": {
        "method": "POST",
        "url": "RelatedPerson"
      }
    },
    {
      "fullUrl": "http://example.org/fhir/Practitioner/74035c88-4933-42d6-a447-ff9ea931a18b",
      "resource": {
        "resourceType": "Practitioner",
        "id": "74035c88-4933-42d6-a447-ff9ea931a18b",
        "identifier": [
          {
            "system": "urn:oid:http://example.org/fhir/sid/provider-id",
            "value": "971219175",
            "type": {
              "coding": [
                {
                  "system": "http://terminology.hl7.org/CodeSystem/v2-0203",
                  "code": "unknown",
                  "display": "Provider Number"
                }
              ]
            }
          }
        ],
        "name": [
          {
            "family": "MERAUT SALOMON",
            "given": [
              "RENEE"
            ],
            "prefix": []
          }
        ],
        "active": true,
        "qualification": [
          {
            "code": {
              "coding": [
                {
                  "system": "http://terminology.hl7.org/CodeSystem/v2-0443",
                  "code": "ODRP",
                  "display": "Unknown Qualification"
                }
              ]
            }
          }
        ],
        "address": [
          {
            "line": [
              "8    AVECONDORCET"
            ],
            "city": "",
            "state": "",
            "postalCode": "97200",
            "country": "UNK"
          }
        ]
      },
      "request": {
        "method": "POST",
        "url": "Practitioner"
      }
    },
    {
      "fullUrl": "http://example.org/fhir/PractitionerRole/39abc76c-3fef-491c-b460-9771982ba443",
      "resource": {
        "resourceType": "PractitionerRole",
        "id": "39abc76c-3fef-491c-b460-9771982ba443",
        "practitioner": {
          "reference": "Practitioner/74035c88-4933-42d6-a447-ff9ea931a18b"
        },
        "code": [
          {
            "coding": [
              {
                "system": "http://terminology.hl7.org/CodeSystem/v2-0443",
                "code": "ODRP"
              }
            ]
          }
        ],
        "active": true,
        "period": {},
        "subject": {
          "reference": "http://example.org/fhir/Patient/6eb8b902-793c-4a25-b924-da4f4705a19b"
        }
      },
      "request": {
        "method": "POST",
        "url": "PractitionerRole"
      }
    }
  ]
}