{
  "resourceType": "Bundle",
  "type": "transaction",
  "id": "4aeab891-37ba-4f83-ba35-6c949871bb77",
  "timestamp": "2025-04-27T20:08:55.269Z",
  "meta": {
    "profile": [
      "https://interop.esante.gouv.fr/ig/fhir/hl7/StructureDefinition/hl7-bundle"
    ],
    "security": [
      {
        "system": "https://mos.esante.gouv.fr/NOS/TRE_R283-Confidentiality/FHIR/TRE-R283-Confidentiality",
        "code": "N",
        "display": "Normal"
      }
    ],
    "tag": [
      {
        "system": "https://mos.esante.gouv.fr/NOS/TRE_R287-FormatCode/FHIR/TRE-R287-FormatCode",
        "code": "urn:ans:ci-sis:hl7:v2.5",
        "display": "HL7 v2.5 converti en FHIR R4 (ANS)"
      }
    ]
  },
  "entry": [
    {
      "fullUrl": "https://fhir.org/FHIRHub/Patient/7d4b007b-22fc-4a28-b897-e12206fea27c",
      "resource": {
        "resourceType": "Patient",
        "id": "7d4b007b-22fc-4a28-b897-e12206fea27c",
        "identifier": [
          {
            "system": "urn:oid:1.2.250.1.211.10.200.1",
            "value": "1174024",
            "type": {
              "coding": [
                {
                  "system": "http://terminology.hl7.org/CodeSystem/v2-0203",
                  "code": "PI",
                  "display": "Patient internal identifier"
                }
              ]
            },
            "assigner": {
              "display": "MCK"
            }
          },
          {
            "system": "urn:oid:1.2.250.1.213.1.4.2",
            "value": "1121717802492545833548",
            "type": {
              "coding": [
                {
                  "system": "http://terminology.hl7.org/CodeSystem/v2-0203",
                  "code": "INS-C",
                  "display": "Insurance Card"
                }
              ]
            },
            "assigner": {
              "display": "ASIP-SANTE-INS-C"
            }
          },
          {
            "system": "urn:oid:1.2.250.1.213.1.4.8",
            "value": "160059932710027",
            "type": {
              "coding": [
                {
                  "system": "http://terminology.hl7.org/CodeSystem/v2-0203",
                  "code": "INS",
                  "display": "INS"
                }
              ]
            },
            "extension": [
              {
                "url": "https://apifhir.annuaire.sante.fr/ws-sync/exposed/structuredefinition/INS-NIR-Verifie",
                "valueBoolean": true
              },
              {
                "url": "https://apifhir.annuaire.sante.fr/ws-sync/exposed/structuredefinition/INS-Source",
                "valueCode": "RECUPERE"
              },
              {
                "url": "https://apifhir.annuaire.sante.fr/ws-sync/exposed/structuredefinition/INS-DateConsultation",
                "valueDateTime": "2025-04-27"
              }
            ],
            "assigner": {
              "display": "ASIP-SANTE-INS-NIR"
            }
          }
        ],
        "name": [
          {
            "family": "YEHOUESSI",
            "given": [
              "HERMAS JEAN RICHARD"
            ]
          }
        ],
        "birthDate": "1960-05-09",
        "gender": "male",
        "address": [
          {
            "line": [
              "8  AVENUE CONDORCET"
            ],
            "city": "FORT DE FRANCE",
            "postalCode": "97200",
            "country": "FRA",
            "use": "home",
            "extension": [
              {
                "url": "https://interop.esante.gouv.fr/ig/fhir/annuaire/StructureDefinition/commune-cog-code",
                "valueString": "97000"
              },
              {
                "url": "http://hl7.org/fhir/StructureDefinition/iso21090-ADXP-precinct",
                "valueString": "97"
              }
            ]
          }
        ],
        "telecom": [
          {
            "system": "phone",
            "value": "+33696039637",
            "use": "home",
            "extension": [
              {
                "url": "http://hl7.org/fhir/StructureDefinition/rendering-style",
                "valueString": "+33 n nn nn nn nn"
              }
            ]
          },
          {
            "system": "phone",
            "value": "+33596000093",
            "use": "home",
            "extension": [
              {
                "url": "http://hl7.org/fhir/StructureDefinition/rendering-style",
                "valueString": "+33 n nn nn nn nn"
              }
            ]
          }
        ]
      },
      "request": {
        "method": "POST",
        "url": "Patient"
      }
    },
    {
      "fullUrl": "https://fhir.org/FHIRHub/Person/4155df58-bb28-4111-8457-0f940144bcc3",
      "resource": {
        "resourceType": "Person",
        "id": "4155df58-bb28-4111-8457-0f940144bcc3",
        "name": [
          {
            "family": "YEHOUESSI",
            "given": [
              "HERMAS JEAN RICHARD"
            ]
          }
        ],
        "gender": "male",
        "birthDate": "1960-05-09",
        "telecom": [
          {
            "system": "phone",
            "value": "+33696039637",
            "use": "home",
            "extension": [
              {
                "url": "http://hl7.org/fhir/StructureDefinition/rendering-style",
                "valueString": "+33 n nn nn nn nn"
              }
            ]
          },
          {
            "system": "phone",
            "value": "+33596000093",
            "use": "home",
            "extension": [
              {
                "url": "http://hl7.org/fhir/StructureDefinition/rendering-style",
                "valueString": "+33 n nn nn nn nn"
              }
            ]
          }
        ],
        "address": [
          {
            "line": [
              "8  AVENUE CONDORCET"
            ],
            "city": "FORT DE FRANCE",
            "postalCode": "97200",
            "country": "FRA",
            "use": "home",
            "extension": [
              {
                "url": "https://interop.esante.gouv.fr/ig/fhir/annuaire/StructureDefinition/commune-cog-code",
                "valueString": "97000"
              },
              {
                "url": "http://hl7.org/fhir/StructureDefinition/iso21090-ADXP-precinct",
                "valueString": "97"
              }
            ]
          }
        ],
        "link": [
          {
            "target": {
              "reference": "https://fhir.org/FHIRHub/Patient/7d4b007b-22fc-4a28-b897-e12206fea27c"
            }
          }
        ]
      },
      "request": {
        "method": "POST",
        "url": "Person"
      }
    },
    {
      "fullUrl": "https://fhir.org/FHIRHub/Encounter/c2cae3f9-c832-4447-80ea-d350cd77e75c",
      "resource": {
        "resourceType": "Encounter",
        "id": "c2cae3f9-c832-4447-80ea-d350cd77e75c",
        "status": "finished",
        "class": {
          "system": "http://terminology.hl7.org/CodeSystem/v3-ActCode",
          "code": "I",
          "display": "Inpatient"
        },
        "subject": {
          "reference": "https://fhir.org/FHIRHub/Patient/7d4b007b-22fc-4a28-b897-e12206fea27c"
        },
        "period": {
          "start": "2025-04-17T05:04:00+00:00"
        }
      },
      "request": {
        "method": "POST",
        "url": "Encounter"
      }
    },
    {
      "fullUrl": "https://fhir.org/FHIRHub/Organization/a3cf51e4-b966-4a11-aa10-e6e7885cfd2d",
      "resource": {
        "resourceType": "Organization",
        "id": "a3cf51e4-b966-4a11-aa10-e6e7885cfd2d",
        "identifier": [
          {
            "system": "http://terminology.hl7.org/CodeSystem/v3-HL7",
            "value": "MCK"
          }
        ],
        "name": "MCK"
      },
      "request": {
        "method": "POST",
        "url": "Organization"
      }
    },
    {
      "fullUrl": "https://fhir.org/FHIRHub/Coverage/a03f4fec-4b96-46c8-9944-4b6aec876f29",
      "resource": {
        "resourceType": "Coverage",
        "id": "a03f4fec-4b96-46c8-9944-4b6aec876f29",
        "status": "active",
        "type": {
          "coding": [
            {
              "system": "https://mos.esante.gouv.fr/NOS/JDV_J65-TypeMutuelles/FHIR/JDV-J65-TypeMutuelles",
              "code": "AMO",
              "display": "Assurance Maladie Obligatoire"
            }
          ]
        },
        "subscriberId": "160059932710027",
        "beneficiary": {
          "reference": "https://fhir.org/FHIRHub/Patient/7d4b007b-22fc-4a28-b897-e12206fea27c"
        },
        "period": {
          "end": "2025-12-31"
        },
        "extension": [
          {
            "url": "https://interop.esante.gouv.fr/ig/fhir/ror/StructureDefinition/ror-organization-field-codeNir",
            "valueString": "160059932710027"
          }
        ]
      },
      "request": {
        "method": "POST",
        "url": "Coverage"
      }
    },
    {
      "fullUrl": "https://fhir.org/FHIRHub/RelatedPerson/1c67f3a7-b026-4bc8-8039-bbad949dc69d",
      "resource": {
        "resourceType": "RelatedPerson",
        "id": "1c67f3a7-b026-4bc8-8039-bbad949dc69d",
        "active": true,
        "patient": {
          "reference": "https://fhir.org/FHIRHub/Patient/7d4b007b-22fc-4a28-b897-e12206fea27c"
        },
        "relationship": [
          {
            "coding": [
              {
                "system": "http://terminology.hl7.org/CodeSystem/v3-RoleCode",
                "code": "EXT",
                "display": "Contact"
              }
            ]
          }
        ],
        "name": [
          {
            "family": "YEHOUESSI",
            "given": [
              "ELENA"
            ]
          }
        ]
      },
      "request": {
        "method": "POST",
        "url": "RelatedPerson"
      }
    },
    {
      "fullUrl": "https://fhir.org/FHIRHub/Practitioner/0a46176b-1650-4b6f-bbf3-68e57bb3647d",
      "resource": {
        "resourceType": "Practitioner",
        "id": "0a46176b-1650-4b6f-bbf3-68e57bb3647d",
        "identifier": [
          {
            "system": "urn:oid:http://example.org/fhir/sid/provider-id",
            "value": "971219175",
            "type": {
              "coding": [
                {
                  "system": "http://terminology.hl7.org/CodeSystem/v2-0203",
                  "code": "unknown",
                  "display": "Provider Number"
                }
              ]
            }
          }
        ],
        "name": [
          {
            "family": "MERAUT SALOMON",
            "given": [
              "RENEE"
            ]
          }
        ],
        "active": true,
        "address": [
          {
            "line": [
              "8    AVECONDORCET"
            ],
            "postalCode": "97200",
            "country": "UNK"
          }
        ]
      },
      "request": {
        "method": "POST",
        "url": "Practitioner"
      }
    },
    {
      "fullUrl": "https://fhir.org/FHIRHub/PractitionerRole/f8f5b6b7-0166-419f-8e70-3c17b28e8531",
      "resource": {
        "resourceType": "PractitionerRole",
        "id": "f8f5b6b7-0166-419f-8e70-3c17b28e8531",
        "practitioner": {
          "reference": "Practitioner/0a46176b-1650-4b6f-bbf3-68e57bb3647d"
        },
        "code": [
          {
            "coding": [
              {
                "system": "https://mos.esante.gouv.fr/NOS/TRE_A01-CadreExercice/FHIR/TRE-A01-CadreExercice",
                "code": "S",
                "display": "Médecin"
              },
              {
                "system": "http://terminology.hl7.org/CodeSystem/v2-0443",
                "code": "ODRP",
                "display": "Unknown Role"
              }
            ]
          }
        ],
        "active": true,
        "period": {},
        "subject": {
          "reference": "https://fhir.org/FHIRHub/Patient/7d4b007b-22fc-4a28-b897-e12206fea27c"
        }
      },
      "request": {
        "method": "POST",
        "url": "PractitionerRole"
      }
    }
  ]
}