{
  "resourceType": "Bundle",
  "type": "transaction",
  "id": "4c2267af-65fa-4074-9385-91fc15c8fbee",
  "timestamp": "2025-04-27T01:37:31.967Z",
  "entry": [
    {
      "fullUrl": "http://example.org/fhir/Patient/1f08cb2b-a41e-4411-943f-42f69de8460b",
      "resource": {
        "resourceType": "Patient",
        "id": "1f08cb2b-a41e-4411-943f-42f69de8460b",
        "identifier": [
          {
            "system": "urn:oid:1.2.250.1.211.10.200.1",
            "value": "1234567",
            "type": {
              "coding": [
                {
                  "system": "http://terminology.hl7.org/CodeSystem/v2-0203",
                  "code": "PI",
                  "display": "Patient internal identifier"
                }
              ]
            },
            "assigner": {
              "display": "MCK"
            }
          },
          {
            "system": "urn:oid:1.2.250.1.213.1.4.2",
            "value": "987654321987654",
            "type": {
              "coding": [
                {
                  "system": "http://terminology.hl7.org/CodeSystem/v2-0203",
                  "code": "INS-C",
                  "display": "Insurance Card"
                }
              ]
            },
            "assigner": {
              "display": "ASIP-SANTE-INS-C"
            }
          },
          {
            "system": "urn:oid:1.2.250.1.213.1.4.8",
            "value": "123456789012345",
            "type": {
              "coding": [
                {
                  "system": "http://terminology.hl7.org/CodeSystem/v2-0203",
                  "code": "INS",
                  "display": "INS"
                }
              ]
            },
            "assigner": {
              "display": "ASIP-SANTE-INS-NIR"
            }
          }
        ],
        "name": [
          {
            "family": "DUPONT",
            "given": [
              "JEAN PHILIPPE"
            ]
          }
        ],
        "birthDate": "1960-05-09T00:00:00Z",
        "gender": "male",
        "address": [
          {
            "line": [
              "8 RUE DE PARIS"
            ],
            "city": "PARIS",
            "state": "",
            "postalCode": "75001",
            "country": "FRA",
            "use": "home"
          }
        ],
        "telecom": [
          {
            "system": "phone",
            "value": "0612345678",
            "use": "home"
          },
          {
            "system": "phone",
            "value": "0123456789",
            "use": "home"
          }
        ]
      },
      "request": {
        "method": "POST",
        "url": "Patient"
      }
    },
    {
      "fullUrl": "http://example.org/fhir/Person/876d4b2e-0fa4-474a-bc6d-8c976fb05fa1",
      "resource": {
        "resourceType": "Person",
        "id": "876d4b2e-0fa4-474a-bc6d-8c976fb05fa1",
        "name": [
          {
            "family": "DUPONT",
            "given": [
              "JEAN PHILIPPE"
            ]
          }
        ],
        "gender": "male",
        "birthDate": "1960-05-09T00:00:00Z",
        "telecom": [
          {
            "system": "phone",
            "value": "0612345678",
            "use": "home"
          },
          {
            "system": "phone",
            "value": "0123456789",
            "use": "home"
          }
        ],
        "address": [
          {
            "line": [
              "8 RUE DE PARIS"
            ],
            "city": "PARIS",
            "state": "",
            "postalCode": "75001",
            "country": "FRA",
            "use": "home"
          }
        ],
        "link": [
          {
            "target": {
              "reference": "http://example.org/fhir/Patient/1f08cb2b-a41e-4411-943f-42f69de8460b"
            }
          }
        ]
      },
      "request": {
        "method": "POST",
        "url": "Person"
      }
    },
    {
      "fullUrl": "http://example.org/fhir/Encounter/61c6cae8-f357-4ee5-aed7-785e70f46925",
      "resource": {
        "resourceType": "Encounter",
        "id": "61c6cae8-f357-4ee5-aed7-785e70f46925",
        "status": "completed",
        "class": [
          {
            "system": "http://terminology.hl7.org/CodeSystem/v3-ActCode",
            "code": "I",
            "display": "Inpatient"
          }
        ],
        "subject": {
          "reference": "http://example.org/fhir/Patient/1f08cb2b-a41e-4411-943f-42f69de8460b"
        },
        "period": {
          "start": "2025-04-17T05:04:00Z"
        }
      },
      "request": {
        "method": "POST",
        "url": "Encounter"
      }
    },
    {
      "fullUrl": "http://example.org/fhir/Organization/f4734d39-851f-4bab-8471-b039424296be",
      "resource": {
        "resourceType": "Organization",
        "id": "f4734d39-851f-4bab-8471-b039424296be",
        "identifier": [
          {
            "system": "http://terminology.hl7.org/CodeSystem/v3-HL7",
            "value": "EAI"
          }
        ],
        "name": "EAI"
      },
      "request": {
        "method": "POST",
        "url": "Organization"
      }
    },
    {
      "fullUrl": "http://example.org/fhir/Coverage/be149376-4a81-4ade-96d2-fb3b35e1b20f",
      "resource": {
        "resourceType": "Coverage",
        "id": "be149376-4a81-4ade-96d2-fb3b35e1b20f",
        "status": "active",
        "kind": "insurance",
        "type": {
          "coding": [
            {
              "system": "http://terminology.hl7.org/CodeSystem/v3-ActCode",
              "code": "EHCPOL",
              "display": "Extended healthcare"
            }
          ]
        },
        "subscriberId": [
          "123456789012345"
        ],
        "beneficiary": {
          "reference": "http://example.org/fhir/Patient/1f08cb2b-a41e-4411-943f-42f69de8460b"
        },
        "period": {
          "end": "2025-12-31"
        }
      },
      "request": {
        "method": "POST",
        "url": "Coverage"
      }
    },
    {
      "fullUrl": "http://example.org/fhir/RelatedPerson/bc011dd4-44de-4d05-8b94-9068bad9ecc5",
      "resource": {
        "resourceType": "RelatedPerson",
        "id": "bc011dd4-44de-4d05-8b94-9068bad9ecc5",
        "active": true,
        "patient": {
          "reference": "http://example.org/fhir/Patient/1f08cb2b-a41e-4411-943f-42f69de8460b"
        },
        "relationship": [
          {
            "coding": [
              {
                "system": "http://terminology.hl7.org/CodeSystem/v3-RoleCode",
                "code": "EXT",
                "display": "Contact"
              }
            ]
          }
        ],
        "name": [
          {
            "family": "DUPONT",
            "given": [
              "MARIE"
            ]
          }
        ],
        "telecom": [],
        "address": [
          {
            "line": [],
            "city": "",
            "state": "",
            "postalCode": "",
            "country": "UNK",
            "use": "home"
          },
          {
            "line": [],
            "city": "",
            "state": "",
            "postalCode": "",
            "country": "UNK",
            "use": "home"
          }
        ]
      },
      "request": {
        "method": "POST",
        "url": "RelatedPerson"
      }
    },
    {
      "fullUrl": "http://example.org/fhir/Practitioner/b29d755e-a24c-44d6-8324-72f921a7ca3c",
      "resource": {
        "resourceType": "Practitioner",
        "id": "b29d755e-a24c-44d6-8324-72f921a7ca3c",
        "identifier": [
          {
            "system": "urn:oid:http://example.org/fhir/sid/provider-id",
            "value": "123456789",
            "type": {
              "coding": [
                {
                  "system": "http://terminology.hl7.org/CodeSystem/v2-0203",
                  "code": "unknown",
                  "display": "Provider Number"
                }
              ]
            }
          }
        ],
        "name": [
          {
            "family": "MARTIN",
            "given": [
              "PAUL"
            ],
            "prefix": []
          }
        ],
        "active": true,
        "qualification": [
          {
            "code": {
              "coding": [
                {
                  "system": "http://terminology.hl7.org/CodeSystem/v2-0443",
                  "code": "ODRP",
                  "display": "Unknown Qualification"
                }
              ]
            }
          }
        ],
        "address": [
          {
            "line": [
              "8 RUE DE LA SANTE"
            ],
            "city": "",
            "state": "",
            "postalCode": "75001",
            "country": "UNK"
          }
        ]
      },
      "request": {
        "method": "POST",
        "url": "Practitioner"
      }
    },
    {
      "fullUrl": "http://example.org/fhir/PractitionerRole/ceb71d28-22c5-4399-b959-545a4a11ba98",
      "resource": {
        "resourceType": "PractitionerRole",
        "id": "ceb71d28-22c5-4399-b959-545a4a11ba98",
        "practitioner": {
          "reference": "Practitioner/b29d755e-a24c-44d6-8324-72f921a7ca3c"
        },
        "code": [
          {
            "coding": [
              {
                "system": "http://terminology.hl7.org/CodeSystem/v2-0443",
                "code": "ODRP"
              }
            ]
          }
        ],
        "active": true,
        "period": {},
        "subject": {
          "reference": "http://example.org/fhir/Patient/1f08cb2b-a41e-4411-943f-42f69de8460b"
        }
      },
      "request": {
        "method": "POST",
        "url": "PractitionerRole"
      }
    }
  ]
}