{
  "resourceType": "Bundle",
  "type": "transaction",
  "id": "315ab149-a17b-49a5-a545-467450bd27be",
  "timestamp": "2025-04-27T18:38:43.585Z",
  "meta": {
    "profile": [
      "https://interop.esante.gouv.fr/ig/fhir/hl7/StructureDefinition/hl7-bundle"
    ],
    "security": [
      {
        "system": "https://mos.esante.gouv.fr/NOS/TRE_R283-Confidentiality/FHIR/TRE-R283-Confidentiality",
        "code": "N",
        "display": "Normal"
      }
    ],
    "tag": [
      {
        "system": "https://mos.esante.gouv.fr/NOS/TRE_R287-FormatCode/FHIR/TRE-R287-FormatCode",
        "code": "urn:ans:ci-sis:hl7:v2.5",
        "display": "HL7 v2.5 converti en FHIR R4 (ANS)"
      }
    ]
  },
  "entry": [
    {
      "fullUrl": "https://fhir.org/FHIRHub/Patient/0bc8b323-92e3-453d-9543-c4651533d6b0",
      "resource": {
        "resourceType": "Patient",
        "id": "0bc8b323-92e3-453d-9543-c4651533d6b0",
        "identifier": [
          {
            "system": "urn:HOPITAL",
            "value": "123456789",
            "type": {
              "coding": [
                {
                  "system": "http://terminology.hl7.org/CodeSystem/v2-0203",
                  "code": "PI",
                  "display": "Patient internal identifier"
                }
              ]
            },
            "assigner": {
              "display": "HOPITAL"
            }
          }
        ],
        "name": [
          {
            "family": "MARTIN",
            "given": [
              "JEAN",
              "ANDRÉ"
            ],
            "prefix": [
              "M."
            ]
          }
        ],
        "birthDate": "1980-01-01",
        "gender": "male",
        "address": [
          {
            "line": [
              "2 RUE DE LA PAIX"
            ],
            "city": "PARIS",
            "postalCode": "75001",
            "country": "FRA",
            "use": "home",
            "extension": [
              {
                "url": "https://interop.esante.gouv.fr/ig/fhir/annuaire/StructureDefinition/commune-cog-code",
                "valueString": "75000"
              }
            ]
          }
        ],
        "telecom": [
          {
            "system": "phone",
            "value": "+33 1 23 45 67 89",
            "use": "home",
            "extension": [
              {
                "url": "http://hl7.org/fhir/StructureDefinition/rendering-style",
                "valueString": "+33 n nn nn nn nn"
              }
            ]
          }
        ]
      },
      "request": {
        "method": "POST",
        "url": "Patient"
      }
    },
    {
      "fullUrl": "https://fhir.org/FHIRHub/Person/4b0270fb-e0f5-4631-a426-ac77bf913e67",
      "resource": {
        "resourceType": "Person",
        "id": "4b0270fb-e0f5-4631-a426-ac77bf913e67",
        "name": [
          {
            "family": "MARTIN",
            "given": [
              "JEAN",
              "ANDRÉ"
            ],
            "prefix": [
              "M."
            ]
          }
        ],
        "gender": "male",
        "birthDate": "1980-01-01",
        "telecom": [
          {
            "system": "phone",
            "value": "+33 1 23 45 67 89",
            "use": "home",
            "extension": [
              {
                "url": "http://hl7.org/fhir/StructureDefinition/rendering-style",
                "valueString": "+33 n nn nn nn nn"
              }
            ]
          }
        ],
        "address": [
          {
            "line": [
              "2 RUE DE LA PAIX"
            ],
            "city": "PARIS",
            "postalCode": "75001",
            "country": "FRA",
            "use": "home",
            "extension": [
              {
                "url": "https://interop.esante.gouv.fr/ig/fhir/annuaire/StructureDefinition/commune-cog-code",
                "valueString": "75000"
              }
            ]
          }
        ],
        "link": [
          {
            "target": {
              "reference": "https://fhir.org/FHIRHub/Patient/0bc8b323-92e3-453d-9543-c4651533d6b0"
            }
          }
        ]
      },
      "request": {
        "method": "POST",
        "url": "Person"
      }
    },
    {
      "fullUrl": "https://fhir.org/FHIRHub/Practitioner/8ef362e9-eac0-48e1-a8df-43c8f5df67de",
      "resource": {
        "resourceType": "Practitioner",
        "id": "8ef362e9-eac0-48e1-a8df-43c8f5df67de",
        "identifier": [
          {
            "system": "http://example.org/fhir/sid/provider-id",
            "value": "456789"
          }
        ],
        "name": [
          {
            "family": "MARTIN",
            "given": [
              "SOPHIE"
            ]
          }
        ]
      },
      "request": {
        "method": "POST",
        "url": "Practitioner"
      }
    },
    {
      "fullUrl": "https://fhir.org/FHIRHub/Encounter/e71937f6-e817-496a-95cc-83677f6c0e85",
      "resource": {
        "resourceType": "Encounter",
        "id": "e71937f6-e817-496a-95cc-83677f6c0e85",
        "status": "finished",
        "class": {
          "system": "http://terminology.hl7.org/CodeSystem/v3-ActCode",
          "code": "I",
          "display": "Inpatient"
        },
        "subject": {
          "reference": "https://fhir.org/FHIRHub/Patient/0bc8b323-92e3-453d-9543-c4651533d6b0"
        },
        "period": {
          "end": "2023-04-27T15:32:03+00:00"
        },
        "location": [
          {
            "location": {
              "display": "CHIRURGIE^101^1"
            }
          }
        ],
        "participant": [
          {
            "individual": {
              "reference": "https://fhir.org/FHIRHub/Practitioner/8ef362e9-eac0-48e1-a8df-43c8f5df67de"
            }
          }
        ]
      },
      "request": {
        "method": "POST",
        "url": "Encounter"
      }
    },
    {
      "fullUrl": "https://fhir.org/FHIRHub/Observation/635389d2-db96-4f84-b1ad-46670728bafe",
      "resource": {
        "resourceType": "Observation",
        "id": "635389d2-db96-4f84-b1ad-46670728bafe",
        "status": "final",
        "code": {
          "coding": [
            {
              "system": "http://loinc.org",
              "code": "8480-6",
              "display": "Pression artérielle systolique"
            }
          ]
        },
        "subject": {
          "reference": "https://fhir.org/FHIRHub/Patient/0bc8b323-92e3-453d-9543-c4651533d6b0"
        },
        "encounter": {
          "reference": "https://fhir.org/FHIRHub/Encounter/e71937f6-e817-496a-95cc-83677f6c0e85"
        },
        "valueQuantity": {
          "value": 120,
          "unit": "mm[Hg]",
          "system": "http://unitsofmeasure.org",
          "code": "mm[Hg]"
        },
        "interpretation": [
          {
            "coding": [
              {
                "system": "http://terminology.hl7.org/CodeSystem/v3-ObservationInterpretation",
                "code": "N",
                "display": "N"
              }
            ]
          }
        ]
      },
      "request": {
        "method": "POST",
        "url": "Observation"
      }
    },
    {
      "fullUrl": "https://fhir.org/FHIRHub/Observation/24873bab-eec6-4702-b6f7-8919cf2a3761",
      "resource": {
        "resourceType": "Observation",
        "id": "24873bab-eec6-4702-b6f7-8919cf2a3761",
        "status": "final",
        "code": {
          "coding": [
            {
              "system": "http://loinc.org",
              "code": "8462-4",
              "display": "Pression artérielle diastolique"
            }
          ]
        },
        "subject": {
          "reference": "https://fhir.org/FHIRHub/Patient/0bc8b323-92e3-453d-9543-c4651533d6b0"
        },
        "encounter": {
          "reference": "https://fhir.org/FHIRHub/Encounter/e71937f6-e817-496a-95cc-83677f6c0e85"
        },
        "valueQuantity": {
          "value": 80,
          "unit": "mm[Hg]",
          "system": "http://unitsofmeasure.org",
          "code": "mm[Hg]"
        },
        "interpretation": [
          {
            "coding": [
              {
                "system": "http://terminology.hl7.org/CodeSystem/v3-ObservationInterpretation",
                "code": "N",
                "display": "N"
              }
            ]
          }
        ]
      },
      "request": {
        "method": "POST",
        "url": "Observation"
      }
    },
    {
      "fullUrl": "https://fhir.org/FHIRHub/Observation/f3f61a23-39c3-4491-b8c6-655e14e31dc8",
      "resource": {
        "resourceType": "Observation",
        "id": "f3f61a23-39c3-4491-b8c6-655e14e31dc8",
        "status": "final",
        "code": {
          "coding": [
            {
              "system": "http://loinc.org",
              "code": "8310-5",
              "display": "Température corporelle"
            }
          ]
        },
        "subject": {
          "reference": "https://fhir.org/FHIRHub/Patient/0bc8b323-92e3-453d-9543-c4651533d6b0"
        },
        "encounter": {
          "reference": "https://fhir.org/FHIRHub/Encounter/e71937f6-e817-496a-95cc-83677f6c0e85"
        },
        "valueQuantity": {
          "value": 37.1,
          "unit": "Cel",
          "system": "http://unitsofmeasure.org",
          "code": "Cel"
        },
        "interpretation": [
          {
            "coding": [
              {
                "system": "http://terminology.hl7.org/CodeSystem/v3-ObservationInterpretation",
                "code": "N",
                "display": "N"
              }
            ]
          }
        ]
      },
      "request": {
        "method": "POST",
        "url": "Observation"
      }
    },
    {
      "fullUrl": "https://fhir.org/FHIRHub/Organization/cec2808e-31cd-47be-853d-cddcc3d6f455",
      "resource": {
        "resourceType": "Organization",
        "id": "cec2808e-31cd-47be-853d-cddcc3d6f455",
        "identifier": [
          {
            "system": "http://terminology.hl7.org/CodeSystem/v3-HL7",
            "value": "SENDING_FACILITY"
          }
        ],
        "name": "SENDING_FACILITY"
      },
      "request": {
        "method": "POST",
        "url": "Organization"
      }
    }
  ]
}