{
  "resourceType": "Bundle",
  "type": "transaction",
  "id": "b90b1b2f-fea6-480c-bdee-517b67a37a4f",
  "timestamp": "2025-04-27T19:10:05.668Z",
  "meta": {
    "profile": [
      "https://interop.esante.gouv.fr/ig/fhir/hl7/StructureDefinition/hl7-bundle"
    ],
    "security": [
      {
        "system": "https://mos.esante.gouv.fr/NOS/TRE_R283-Confidentiality/FHIR/TRE-R283-Confidentiality",
        "code": "N",
        "display": "Normal"
      }
    ],
    "tag": [
      {
        "system": "https://mos.esante.gouv.fr/NOS/TRE_R287-FormatCode/FHIR/TRE-R287-FormatCode",
        "code": "urn:ans:ci-sis:hl7:v2.5",
        "display": "HL7 v2.5 converti en FHIR R4 (ANS)"
      }
    ]
  },
  "entry": [
    {
      "fullUrl": "https://fhir.org/FHIRHub/Patient/f3c78b3f-fa63-4a04-b25c-839c1fa623ba",
      "resource": {
        "resourceType": "Patient",
        "id": "f3c78b3f-fa63-4a04-b25c-839c1fa623ba",
        "identifier": [
          {
            "system": "urn:oid:1.2.250.1.211.10.200.1",
            "value": "1174024",
            "type": {
              "coding": [
                {
                  "system": "http://terminology.hl7.org/CodeSystem/v2-0203",
                  "code": "PI",
                  "display": "Patient internal identifier"
                }
              ]
            },
            "assigner": {
              "display": "MCK"
            }
          },
          {
            "system": "urn:oid:1.2.250.1.213.1.4.2",
            "value": "1121717802492545833548",
            "type": {
              "coding": [
                {
                  "system": "http://terminology.hl7.org/CodeSystem/v2-0203",
                  "code": "INS-C",
                  "display": "Insurance Card"
                }
              ]
            },
            "assigner": {
              "display": "ASIP-SANTE-INS-C"
            }
          },
          {
            "system": "urn:oid:1.2.250.1.213.1.4.8",
            "value": "160059932710027",
            "type": {
              "coding": [
                {
                  "system": "http://terminology.hl7.org/CodeSystem/v2-0203",
                  "code": "INS",
                  "display": "INS"
                }
              ]
            },
            "extension": [
              {
                "url": "https://apifhir.annuaire.sante.fr/ws-sync/exposed/structuredefinition/INS-NIR-Verifie",
                "valueBoolean": true
              },
              {
                "url": "https://apifhir.annuaire.sante.fr/ws-sync/exposed/structuredefinition/INS-Source",
                "valueCode": "RECUPERE"
              },
              {
                "url": "https://apifhir.annuaire.sante.fr/ws-sync/exposed/structuredefinition/INS-DateConsultation",
                "valueDateTime": "2025-04-27"
              }
            ],
            "assigner": {
              "display": "ASIP-SANTE-INS-NIR"
            }
          }
        ],
        "name": [
          {
            "family": "YEHOUESSI",
            "given": [
              "HERMAS JEAN RICHARD"
            ]
          }
        ],
        "birthDate": "1960-05-09",
        "gender": "male",
        "address": [
          {
            "line": [
              "8  AVENUE CONDORCET"
            ],
            "city": "FORT DE FRANCE",
            "postalCode": "97200",
            "country": "FRA",
            "use": "home",
            "extension": [
              {
                "url": "https://interop.esante.gouv.fr/ig/fhir/annuaire/StructureDefinition/commune-cog-code",
                "valueString": "97000"
              },
              {
                "url": "http://hl7.org/fhir/StructureDefinition/iso21090-ADXP-precinct",
                "valueString": "97"
              }
            ]
          }
        ],
        "telecom": [
          {
            "system": "phone",
            "value": "+33696039637",
            "use": "home",
            "extension": [
              {
                "url": "http://hl7.org/fhir/StructureDefinition/rendering-style",
                "valueString": "+33 n nn nn nn nn"
              }
            ]
          },
          {
            "system": "phone",
            "value": "+33596000093",
            "use": "home",
            "extension": [
              {
                "url": "http://hl7.org/fhir/StructureDefinition/rendering-style",
                "valueString": "+33 n nn nn nn nn"
              }
            ]
          }
        ]
      },
      "request": {
        "method": "POST",
        "url": "Patient"
      }
    },
    {
      "fullUrl": "https://fhir.org/FHIRHub/Person/aba967fd-bf42-4751-903e-0f62d2f067f9",
      "resource": {
        "resourceType": "Person",
        "id": "aba967fd-bf42-4751-903e-0f62d2f067f9",
        "name": [
          {
            "family": "YEHOUESSI",
            "given": [
              "HERMAS JEAN RICHARD"
            ]
          }
        ],
        "gender": "male",
        "birthDate": "1960-05-09",
        "telecom": [
          {
            "system": "phone",
            "value": "+33696039637",
            "use": "home",
            "extension": [
              {
                "url": "http://hl7.org/fhir/StructureDefinition/rendering-style",
                "valueString": "+33 n nn nn nn nn"
              }
            ]
          },
          {
            "system": "phone",
            "value": "+33596000093",
            "use": "home",
            "extension": [
              {
                "url": "http://hl7.org/fhir/StructureDefinition/rendering-style",
                "valueString": "+33 n nn nn nn nn"
              }
            ]
          }
        ],
        "address": [
          {
            "line": [
              "8  AVENUE CONDORCET"
            ],
            "city": "FORT DE FRANCE",
            "postalCode": "97200",
            "country": "FRA",
            "use": "home",
            "extension": [
              {
                "url": "https://interop.esante.gouv.fr/ig/fhir/annuaire/StructureDefinition/commune-cog-code",
                "valueString": "97000"
              },
              {
                "url": "http://hl7.org/fhir/StructureDefinition/iso21090-ADXP-precinct",
                "valueString": "97"
              }
            ]
          }
        ],
        "link": [
          {
            "target": {
              "reference": "https://fhir.org/FHIRHub/Patient/f3c78b3f-fa63-4a04-b25c-839c1fa623ba"
            }
          }
        ]
      },
      "request": {
        "method": "POST",
        "url": "Person"
      }
    },
    {
      "fullUrl": "https://fhir.org/FHIRHub/Encounter/c04ccdc2-a6af-4107-b4ce-20f74809e9d6",
      "resource": {
        "resourceType": "Encounter",
        "id": "c04ccdc2-a6af-4107-b4ce-20f74809e9d6",
        "status": "finished",
        "class": {
          "system": "http://terminology.hl7.org/CodeSystem/v3-ActCode",
          "code": "I",
          "display": "Inpatient"
        },
        "subject": {
          "reference": "https://fhir.org/FHIRHub/Patient/f3c78b3f-fa63-4a04-b25c-839c1fa623ba"
        },
        "period": {
          "start": "2025-04-17T05:04:00+00:00"
        }
      },
      "request": {
        "method": "POST",
        "url": "Encounter"
      }
    },
    {
      "fullUrl": "https://fhir.org/FHIRHub/Organization/8846ab49-0399-444c-8b4c-0c886c36e9bc",
      "resource": {
        "resourceType": "Organization",
        "id": "8846ab49-0399-444c-8b4c-0c886c36e9bc",
        "identifier": [
          {
            "system": "http://terminology.hl7.org/CodeSystem/v3-HL7",
            "value": "MCK"
          }
        ],
        "name": "MCK"
      },
      "request": {
        "method": "POST",
        "url": "Organization"
      }
    },
    {
      "fullUrl": "https://fhir.org/FHIRHub/Coverage/0b2e1a37-b951-49a9-b7b2-fe3084e4b336",
      "resource": {
        "resourceType": "Coverage",
        "id": "0b2e1a37-b951-49a9-b7b2-fe3084e4b336",
        "status": "active",
        "type": {
          "coding": [
            {
              "system": "https://mos.esante.gouv.fr/NOS/JDV_J65-TypeMutuelles/FHIR/JDV-J65-TypeMutuelles",
              "code": "AMO",
              "display": "Assurance Maladie Obligatoire"
            }
          ]
        },
        "subscriberId": "160059932710027",
        "beneficiary": {
          "reference": "https://fhir.org/FHIRHub/Patient/f3c78b3f-fa63-4a04-b25c-839c1fa623ba"
        },
        "period": {
          "end": "2025-12-31"
        },
        "extension": [
          {
            "url": "https://interop.esante.gouv.fr/ig/fhir/ror/StructureDefinition/ror-organization-field-codeNir",
            "valueString": "160059932710027"
          }
        ]
      },
      "request": {
        "method": "POST",
        "url": "Coverage"
      }
    },
    {
      "fullUrl": "https://fhir.org/FHIRHub/RelatedPerson/06a13084-268e-448a-a97c-6bd201170d2f",
      "resource": {
        "resourceType": "RelatedPerson",
        "id": "06a13084-268e-448a-a97c-6bd201170d2f",
        "active": true,
        "patient": {
          "reference": "https://fhir.org/FHIRHub/Patient/f3c78b3f-fa63-4a04-b25c-839c1fa623ba"
        },
        "relationship": [
          {
            "coding": [
              {
                "system": "http://terminology.hl7.org/CodeSystem/v3-RoleCode",
                "code": "EXT",
                "display": "Contact"
              }
            ]
          }
        ],
        "name": [
          {
            "family": "YEHOUESSI",
            "given": [
              "ELENA"
            ]
          }
        ]
      },
      "request": {
        "method": "POST",
        "url": "RelatedPerson"
      }
    },
    {
      "fullUrl": "https://fhir.org/FHIRHub/Practitioner/ba3b19a9-428e-4f62-b69f-5fad177a0613",
      "resource": {
        "resourceType": "Practitioner",
        "id": "ba3b19a9-428e-4f62-b69f-5fad177a0613",
        "identifier": [
          {
            "system": "urn:oid:http://example.org/fhir/sid/provider-id",
            "value": "971219175",
            "type": {
              "coding": [
                {
                  "system": "http://terminology.hl7.org/CodeSystem/v2-0203",
                  "code": "unknown",
                  "display": "Provider Number"
                }
              ]
            }
          }
        ],
        "name": [
          {
            "family": "MERAUT SALOMON",
            "given": [
              "RENEE"
            ]
          }
        ],
        "active": true,
        "address": [
          {
            "line": [
              "8    AVECONDORCET"
            ],
            "postalCode": "97200",
            "country": "UNK"
          }
        ]
      },
      "request": {
        "method": "POST",
        "url": "Practitioner"
      }
    },
    {
      "fullUrl": "https://fhir.org/FHIRHub/PractitionerRole/c5ef1a87-f7e1-4007-b29a-2b9cbb96d5fa",
      "resource": {
        "resourceType": "PractitionerRole",
        "id": "c5ef1a87-f7e1-4007-b29a-2b9cbb96d5fa",
        "practitioner": {
          "reference": "Practitioner/ba3b19a9-428e-4f62-b69f-5fad177a0613"
        },
        "code": [
          {
            "coding": [
              {
                "system": "https://mos.esante.gouv.fr/NOS/TRE_A01-CadreExercice/FHIR/TRE-A01-CadreExercice",
                "code": "S",
                "display": "Médecin"
              },
              {
                "system": "http://terminology.hl7.org/CodeSystem/v2-0443",
                "code": "ODRP",
                "display": "Unknown Role"
              }
            ]
          }
        ],
        "active": true,
        "period": {},
        "subject": {
          "reference": "https://fhir.org/FHIRHub/Patient/f3c78b3f-fa63-4a04-b25c-839c1fa623ba"
        }
      },
      "request": {
        "method": "POST",
        "url": "PractitionerRole"
      }
    }
  ]
}