{
  "resourceType": "Bundle",
  "type": "transaction",
  "id": "31542679-93ee-4b0d-b801-c3ac4aaa4bd4",
  "timestamp": "2025-04-27T09:43:24.120Z",
  "meta": {
    "profile": [
      "https://interop.esante.gouv.fr/ig/fhir/hl7/StructureDefinition/hl7-bundle"
    ],
    "security": [
      {
        "system": "https://mos.esante.gouv.fr/NOS/TRE_R283-Confidentiality/FHIR/TRE-R283-Confidentiality",
        "code": "N",
        "display": "Normal"
      }
    ],
    "tag": [
      {
        "system": "https://mos.esante.gouv.fr/NOS/TRE_R287-FormatCode/FHIR/TRE-R287-FormatCode",
        "code": "urn:ans:ci-sis:hl7:v2.5",
        "display": "HL7 v2.5 converti en FHIR R4 (ANS)"
      }
    ]
  },
  "entry": [
    {
      "fullUrl": "https://fhir.org/FHIRHub/Patient/9b4b7778-3a2d-4c1b-a5a0-80aee8f386dc",
      "resource": {
        "resourceType": "Patient",
        "id": "9b4b7778-3a2d-4c1b-a5a0-80aee8f386dc",
        "identifier": [
          {
            "system": "urn:oid:1.2.250.1.211.10.200.1",
            "value": "1234567",
            "type": {
              "coding": [
                {
                  "system": "http://terminology.hl7.org/CodeSystem/v2-0203",
                  "code": "PI",
                  "display": "Patient internal identifier"
                }
              ]
            },
            "assigner": {
              "display": "MCK"
            }
          },
          {
            "system": "urn:oid:1.2.250.1.213.1.4.2",
            "value": "987654321987654",
            "type": {
              "coding": [
                {
                  "system": "http://terminology.hl7.org/CodeSystem/v2-0203",
                  "code": "INS-C",
                  "display": "Insurance Card"
                }
              ]
            },
            "assigner": {
              "display": "ASIP-SANTE-INS-C"
            }
          },
          {
            "system": "urn:oid:1.2.250.1.213.1.4.8",
            "value": "123456789012345",
            "type": {
              "coding": [
                {
                  "system": "http://terminology.hl7.org/CodeSystem/v2-0203",
                  "code": "INS",
                  "display": "INS"
                }
              ]
            },
            "extension": [
              {
                "url": "https://apifhir.annuaire.sante.fr/ws-sync/exposed/structuredefinition/INS-NIR-Verifie",
                "valueBoolean": true
              },
              {
                "url": "https://apifhir.annuaire.sante.fr/ws-sync/exposed/structuredefinition/INS-Source",
                "valueCode": "RECUPERE"
              },
              {
                "url": "https://apifhir.annuaire.sante.fr/ws-sync/exposed/structuredefinition/INS-DateConsultation",
                "valueDateTime": "2025-04-27"
              }
            ],
            "assigner": {
              "display": "ASIP-SANTE-INS-NIR"
            }
          }
        ],
        "name": [
          {
            "family": "DUPONT",
            "given": [
              "JEAN PHILIPPE"
            ]
          }
        ],
        "birthDate": "1960-05-09",
        "gender": "male",
        "address": [
          {
            "line": [
              "8 RUE DE PARIS"
            ],
            "city": "PARIS",
            "state": "",
            "postalCode": "75001",
            "country": "FRA",
            "use": "home",
            "extension": [
              {
                "url": "https://interop.esante.gouv.fr/ig/fhir/annuaire/StructureDefinition/commune-cog-code",
                "valueString": "97000"
              },
              {
                "url": "http://hl7.org/fhir/StructureDefinition/iso21090-ADXP-precinct",
                "valueString": "97"
              }
            ]
          }
        ],
        "telecom": [
          {
            "system": "phone",
            "value": "+33696039637",
            "use": "home",
            "extension": [
              {
                "url": "http://hl7.org/fhir/StructureDefinition/rendering-style",
                "valueString": "+33 n nn nn nn nn"
              }
            ]
          },
          {
            "system": "phone",
            "value": "+33596000093",
            "use": "home",
            "extension": [
              {
                "url": "http://hl7.org/fhir/StructureDefinition/rendering-style",
                "valueString": "+33 n nn nn nn nn"
              }
            ]
          }
        ]
      },
      "request": {
        "method": "POST",
        "url": "Patient"
      }
    },
    {
      "fullUrl": "https://fhir.org/FHIRHub/Person/90c9e52a-4272-4f36-a883-615c2ba5027b",
      "resource": {
        "resourceType": "Person",
        "id": "90c9e52a-4272-4f36-a883-615c2ba5027b",
        "name": [
          {
            "family": "DUPONT",
            "given": [
              "JEAN PHILIPPE"
            ]
          }
        ],
        "gender": "male",
        "birthDate": "1960-05-09",
        "telecom": [
          {
            "system": "phone",
            "value": "+33696039637",
            "use": "home",
            "extension": [
              {
                "url": "http://hl7.org/fhir/StructureDefinition/rendering-style",
                "valueString": "+33 n nn nn nn nn"
              }
            ]
          },
          {
            "system": "phone",
            "value": "+33596000093",
            "use": "home",
            "extension": [
              {
                "url": "http://hl7.org/fhir/StructureDefinition/rendering-style",
                "valueString": "+33 n nn nn nn nn"
              }
            ]
          }
        ],
        "address": [
          {
            "line": [
              "8 RUE DE PARIS"
            ],
            "city": "PARIS",
            "state": "",
            "postalCode": "75001",
            "country": "FRA",
            "use": "home",
            "extension": [
              {
                "url": "https://interop.esante.gouv.fr/ig/fhir/annuaire/StructureDefinition/commune-cog-code",
                "valueString": "97000"
              },
              {
                "url": "http://hl7.org/fhir/StructureDefinition/iso21090-ADXP-precinct",
                "valueString": "97"
              }
            ]
          }
        ],
        "link": [
          {
            "target": {
              "reference": "https://fhir.org/FHIRHub/Patient/9b4b7778-3a2d-4c1b-a5a0-80aee8f386dc"
            }
          }
        ]
      },
      "request": {
        "method": "POST",
        "url": "Person"
      }
    },
    {
      "fullUrl": "https://fhir.org/FHIRHub/Encounter/0b17420f-ede3-467f-9f16-51ded5ae0561",
      "resource": {
        "resourceType": "Encounter",
        "id": "0b17420f-ede3-467f-9f16-51ded5ae0561",
        "status": "finished",
        "class": {
          "system": "http://terminology.hl7.org/CodeSystem/v3-ActCode",
          "code": "I",
          "display": "Inpatient"
        },
        "subject": {
          "reference": "https://fhir.org/FHIRHub/Patient/9b4b7778-3a2d-4c1b-a5a0-80aee8f386dc"
        },
        "period": {
          "start": "2025-04-17T05:04:00+00:00"
        }
      },
      "request": {
        "method": "POST",
        "url": "Encounter"
      }
    },
    {
      "fullUrl": "https://fhir.org/FHIRHub/Organization/dd9af6ac-77a4-4527-8772-a4d96cefc0dc",
      "resource": {
        "resourceType": "Organization",
        "id": "dd9af6ac-77a4-4527-8772-a4d96cefc0dc",
        "identifier": [
          {
            "system": "http://terminology.hl7.org/CodeSystem/v3-HL7",
            "value": "MCK"
          }
        ],
        "name": "MCK"
      },
      "request": {
        "method": "POST",
        "url": "Organization"
      }
    },
    {
      "fullUrl": "https://fhir.org/FHIRHub/Coverage/badbf4e3-84a5-474e-8205-ca069459b642",
      "resource": {
        "resourceType": "Coverage",
        "id": "badbf4e3-84a5-474e-8205-ca069459b642",
        "status": "active",
        "type": {
          "coding": [
            {
              "system": "https://mos.esante.gouv.fr/NOS/JDV_J65-TypeMutuelles/FHIR/JDV-J65-TypeMutuelles",
              "code": "AMO",
              "display": "Assurance Maladie Obligatoire"
            }
          ]
        },
        "subscriberId": "123456789012345",
        "beneficiary": {
          "reference": "https://fhir.org/FHIRHub/Patient/9b4b7778-3a2d-4c1b-a5a0-80aee8f386dc"
        },
        "period": {
          "end": "2025-12-31"
        },
        "extension": [
          {
            "url": "https://interop.esante.gouv.fr/ig/fhir/ror/StructureDefinition/ror-organization-field-codeNir",
            "valueString": "123456789012345"
          }
        ]
      },
      "request": {
        "method": "POST",
        "url": "Coverage"
      }
    },
    {
      "fullUrl": "https://fhir.org/FHIRHub/RelatedPerson/c41c1230-2993-457e-8796-5245eb29dd97",
      "resource": {
        "resourceType": "RelatedPerson",
        "id": "c41c1230-2993-457e-8796-5245eb29dd97",
        "active": true,
        "patient": {
          "reference": "https://fhir.org/FHIRHub/Patient/9b4b7778-3a2d-4c1b-a5a0-80aee8f386dc"
        },
        "relationship": [
          {
            "coding": [
              {
                "system": "http://terminology.hl7.org/CodeSystem/v3-RoleCode",
                "code": "EXT",
                "display": "Contact"
              }
            ]
          }
        ],
        "name": [
          {
            "family": "DUPONT",
            "given": [
              "MARIE"
            ]
          }
        ],
        "telecom": [],
        "address": [
          {
            "line": [],
            "city": "",
            "state": "",
            "postalCode": "",
            "country": "UNK",
            "use": "home"
          },
          {
            "line": [],
            "city": "",
            "state": "",
            "postalCode": "",
            "country": "UNK",
            "use": "home"
          }
        ]
      },
      "request": {
        "method": "POST",
        "url": "RelatedPerson"
      }
    },
    {
      "fullUrl": "https://fhir.org/FHIRHub/Practitioner/c635a844-5b00-4c32-9cb6-ba2cf0628b8d",
      "resource": {
        "resourceType": "Practitioner",
        "id": "c635a844-5b00-4c32-9cb6-ba2cf0628b8d",
        "identifier": [
          {
            "system": "urn:oid:http://example.org/fhir/sid/provider-id",
            "value": "123456789",
            "type": {
              "coding": [
                {
                  "system": "http://terminology.hl7.org/CodeSystem/v2-0203",
                  "code": "unknown",
                  "display": "Provider Number"
                }
              ]
            }
          }
        ],
        "name": [
          {
            "family": "MARTIN",
            "given": [
              "PAUL"
            ],
            "prefix": []
          }
        ],
        "active": true,
        "qualification": [
          {
            "code": {
              "coding": [
                {
                  "system": "http://terminology.hl7.org/CodeSystem/v2-0443",
                  "code": "ODRP",
                  "display": "Unknown Qualification"
                }
              ]
            }
          }
        ],
        "address": [
          {
            "line": [
              "8 RUE DE LA SANTE"
            ],
            "city": "",
            "state": "",
            "postalCode": "75001",
            "country": "UNK"
          }
        ]
      },
      "request": {
        "method": "POST",
        "url": "Practitioner"
      }
    },
    {
      "fullUrl": "https://fhir.org/FHIRHub/PractitionerRole/b4e69280-7acc-40e2-9bf4-e256462ffe66",
      "resource": {
        "resourceType": "PractitionerRole",
        "id": "b4e69280-7acc-40e2-9bf4-e256462ffe66",
        "practitioner": {
          "reference": "Practitioner/c635a844-5b00-4c32-9cb6-ba2cf0628b8d"
        },
        "code": [
          {
            "coding": [
              {
                "system": "https://mos.esante.gouv.fr/NOS/TRE_A01-CadreExercice/FHIR/TRE-A01-CadreExercice",
                "code": "S",
                "display": "Médecin"
              },
              {
                "system": "http://terminology.hl7.org/CodeSystem/v2-0443",
                "code": "ODRP",
                "display": "Unknown Role"
              }
            ]
          }
        ],
        "extension": [
          {
            "url": "https://interop.esante.gouv.fr/ig/fhir/annuaire/StructureDefinition/practitionerRole-specialty",
            "valueCodeableConcept": {
              "coding": [
                {
                  "system": "https://mos.esante.gouv.fr/NOS/TRE_R38-SpecialiteOrdinale/FHIR/TRE-R38-SpecialiteOrdinale",
                  "code": "01",
                  "display": "Médecine générale"
                }
              ]
            }
          }
        ],
        "active": true,
        "period": {},
        "subject": {
          "reference": "https://fhir.org/FHIRHub/Patient/9b4b7778-3a2d-4c1b-a5a0-80aee8f386dc"
        }
      },
      "request": {
        "method": "POST",
        "url": "PractitionerRole"
      }
    }
  ]
}