{
  "resourceType": "Bundle",
  "type": "transaction",
  "id": "8d4a0b29-4aef-4b52-a029-fcf0ecbf75be",
  "timestamp": "2025-04-27T16:14:29.661Z",
  "meta": {
    "profile": [
      "https://interop.esante.gouv.fr/ig/fhir/hl7/StructureDefinition/hl7-bundle"
    ],
    "security": [
      {
        "system": "https://mos.esante.gouv.fr/NOS/TRE_R283-Confidentiality/FHIR/TRE-R283-Confidentiality",
        "code": "N",
        "display": "Normal"
      }
    ],
    "tag": [
      {
        "system": "https://mos.esante.gouv.fr/NOS/TRE_R287-FormatCode/FHIR/TRE-R287-FormatCode",
        "code": "urn:ans:ci-sis:hl7:v2.5",
        "display": "HL7 v2.5 converti en FHIR R4 (ANS)"
      }
    ]
  },
  "entry": [
    {
      "fullUrl": "https://fhir.org/FHIRHub/Patient/8d06bef3-6e24-4e25-b5ac-5f2444bc0448",
      "resource": {
        "resourceType": "Patient",
        "id": "8d06bef3-6e24-4e25-b5ac-5f2444bc0448",
        "identifier": [
          {
            "system": "urn:ADT1",
            "value": "MRN12345",
            "type": {
              "coding": [
                {
                  "system": "http://terminology.hl7.org/CodeSystem/v2-0203",
                  "code": "MR",
                  "display": "Medical record number"
                }
              ]
            },
            "assigner": {
              "display": "ADT1"
            }
          },
          {
            "system": "urn:USSSA",
            "value": "123456789",
            "type": {
              "coding": [
                {
                  "system": "http://terminology.hl7.org/CodeSystem/v2-0203",
                  "code": "SS",
                  "display": "Social Security number"
                }
              ]
            },
            "assigner": {
              "display": "USSSA"
            }
          }
        ],
        "name": [
          {
            "family": "EVERYMAN",
            "given": [
              "ADAM",
              "A"
            ],
            "suffix": [
              "III"
            ]
          }
        ],
        "birthDate": "1961-06-15",
        "gender": "male",
        "address": [
          {
            "line": [
              "2222 HOME STREET"
            ],
            "city": "GREENSBORO",
            "state": "NC",
            "postalCode": "27401-1020",
            "country": "FRA"
          }
        ],
        "telecom": [
          {
            "system": "phone",
            "value": "(555) 555-2004",
            "use": "home"
          },
          {
            "system": "phone",
            "value": "(555)555-2004",
            "use": "work"
          }
        ]
      },
      "request": {
        "method": "POST",
        "url": "Patient"
      }
    },
    {
      "fullUrl": "https://fhir.org/FHIRHub/Person/69646187-0d83-47a1-81a3-9c5a7ba41933",
      "resource": {
        "resourceType": "Person",
        "id": "69646187-0d83-47a1-81a3-9c5a7ba41933",
        "name": [
          {
            "family": "EVERYMAN",
            "given": [
              "ADAM",
              "A"
            ],
            "suffix": [
              "III"
            ]
          }
        ],
        "gender": "male",
        "birthDate": "1961-06-15",
        "telecom": [
          {
            "system": "phone",
            "value": "(555) 555-2004",
            "use": "home"
          },
          {
            "system": "phone",
            "value": "(555)555-2004",
            "use": "work"
          }
        ],
        "address": [
          {
            "line": [
              "2222 HOME STREET"
            ],
            "city": "GREENSBORO",
            "state": "NC",
            "postalCode": "27401-1020",
            "country": "FRA"
          }
        ],
        "link": [
          {
            "target": {
              "reference": "https://fhir.org/FHIRHub/Patient/8d06bef3-6e24-4e25-b5ac-5f2444bc0448"
            }
          }
        ]
      },
      "request": {
        "method": "POST",
        "url": "Person"
      }
    },
    {
      "fullUrl": "https://fhir.org/FHIRHub/Practitioner/cefc224d-aec5-45f9-9501-c1501eeea188",
      "resource": {
        "resourceType": "Practitioner",
        "id": "cefc224d-aec5-45f9-9501-c1501eeea188",
        "identifier": [
          {
            "system": "http://example.org/fhir/sid/provider-id",
            "value": "99999"
          }
        ],
        "name": [
          {
            "family": "DUCK",
            "given": [
              "DONALD"
            ]
          }
        ]
      },
      "request": {
        "method": "POST",
        "url": "Practitioner"
      }
    },
    {
      "fullUrl": "https://fhir.org/FHIRHub/Encounter/4f853f64-751d-4e76-bbc0-cfe517f85ed5",
      "resource": {
        "resourceType": "Encounter",
        "id": "4f853f64-751d-4e76-bbc0-cfe517f85ed5",
        "status": "finished",
        "class": {
          "system": "http://terminology.hl7.org/CodeSystem/v3-ActCode",
          "code": "I",
          "display": "Inpatient"
        },
        "subject": {
          "reference": "https://fhir.org/FHIRHub/Patient/8d06bef3-6e24-4e25-b5ac-5f2444bc0448"
        },
        "period": {},
        "location": [
          {
            "location": {
              "display": "2000^2012^01"
            }
          }
        ],
        "participant": [
          {
            "individual": {
              "reference": "https://fhir.org/FHIRHub/Practitioner/cefc224d-aec5-45f9-9501-c1501eeea188"
            }
          }
        ]
      },
      "request": {
        "method": "POST",
        "url": "Encounter"
      }
    },
    {
      "fullUrl": "https://fhir.org/FHIRHub/Organization/f9cf8a78-0ac4-4de8-ae1f-66272de60e2a",
      "resource": {
        "resourceType": "Organization",
        "id": "f9cf8a78-0ac4-4de8-ae1f-66272de60e2a",
        "identifier": [
          {
            "system": "http://terminology.hl7.org/CodeSystem/v3-HL7",
            "value": "DH"
          }
        ],
        "name": "DH"
      },
      "request": {
        "method": "POST",
        "url": "Organization"
      }
    },
    {
      "fullUrl": "https://fhir.org/FHIRHub/RelatedPerson/fc852ce8-7b22-4332-b0e7-6106e66f4ab2",
      "resource": {
        "resourceType": "RelatedPerson",
        "id": "fc852ce8-7b22-4332-b0e7-6106e66f4ab2",
        "active": true,
        "patient": {
          "reference": "https://fhir.org/FHIRHub/Patient/8d06bef3-6e24-4e25-b5ac-5f2444bc0448"
        },
        "relationship": [
          {
            "coding": [
              {
                "system": "http://terminology.hl7.org/CodeSystem/v3-RoleCode",
                "code": "SPS",
                "display": "SPOUSE"
              }
            ]
          }
        ],
        "name": [
          {
            "family": "NUCLEAR",
            "given": [
              "NELDA",
              "W"
            ]
          }
        ],
        "telecom": [
          {
            "system": "phone",
            "value": "2222 HOME STREET",
            "use": "home"
          },
          {
            "system": "phone",
            "value": "(555) 555-2004",
            "use": "work"
          }
        ]
      },
      "request": {
        "method": "POST",
        "url": "RelatedPerson"
      }
    }
  ]
}