{
  "resourceType": "Bundle",
  "type": "transaction",
  "id": "232ba9ae-ab28-4fd8-9072-cf6545673679",
  "timestamp": "2025-04-27T18:21:21.200Z",
  "meta": {
    "profile": [
      "https://interop.esante.gouv.fr/ig/fhir/hl7/StructureDefinition/hl7-bundle"
    ],
    "security": [
      {
        "system": "https://mos.esante.gouv.fr/NOS/TRE_R283-Confidentiality/FHIR/TRE-R283-Confidentiality",
        "code": "N",
        "display": "Normal"
      }
    ],
    "tag": [
      {
        "system": "https://mos.esante.gouv.fr/NOS/TRE_R287-FormatCode/FHIR/TRE-R287-FormatCode",
        "code": "urn:ans:ci-sis:hl7:v2.5",
        "display": "HL7 v2.5 converti en FHIR R4 (ANS)"
      }
    ]
  },
  "entry": [
    {
      "fullUrl": "https://fhir.org/FHIRHub/Patient/33048fa0-562c-45e1-928d-34a136269fd7",
      "resource": {
        "resourceType": "Patient",
        "id": "33048fa0-562c-45e1-928d-34a136269fd7",
        "identifier": [
          {
            "system": "urn:HOPITAL",
            "value": "123456789",
            "type": {
              "coding": [
                {
                  "system": "http://terminology.hl7.org/CodeSystem/v2-0203",
                  "code": "PI",
                  "display": "Patient internal identifier"
                }
              ]
            },
            "assigner": {
              "display": "HOPITAL"
            }
          }
        ],
        "name": [
          {
            "family": "MARTIN",
            "given": [
              "JEAN",
              "ANDRÉ"
            ],
            "prefix": [
              "M."
            ]
          }
        ],
        "birthDate": "1980-01-01",
        "gender": "male",
        "address": [
          {
            "line": [
              "2 RUE DE LA PAIX"
            ],
            "city": "PARIS",
            "postalCode": "75001",
            "country": "FRA",
            "use": "home",
            "extension": [
              {
                "url": "https://interop.esante.gouv.fr/ig/fhir/annuaire/StructureDefinition/commune-cog-code",
                "valueString": "75000"
              }
            ]
          }
        ],
        "telecom": [
          {
            "system": "phone",
            "value": "+33 1 23 45 67 89",
            "use": "home",
            "extension": [
              {
                "url": "http://hl7.org/fhir/StructureDefinition/rendering-style",
                "valueString": "+33 n nn nn nn nn"
              }
            ]
          }
        ]
      },
      "request": {
        "method": "POST",
        "url": "Patient"
      }
    },
    {
      "fullUrl": "https://fhir.org/FHIRHub/Person/984cc0b1-e376-46e8-8b32-e0548007c53e",
      "resource": {
        "resourceType": "Person",
        "id": "984cc0b1-e376-46e8-8b32-e0548007c53e",
        "name": [
          {
            "family": "MARTIN",
            "given": [
              "JEAN",
              "ANDRÉ"
            ],
            "prefix": [
              "M."
            ]
          }
        ],
        "gender": "male",
        "birthDate": "1980-01-01",
        "telecom": [
          {
            "system": "phone",
            "value": "+33 1 23 45 67 89",
            "use": "home",
            "extension": [
              {
                "url": "http://hl7.org/fhir/StructureDefinition/rendering-style",
                "valueString": "+33 n nn nn nn nn"
              }
            ]
          }
        ],
        "address": [
          {
            "line": [
              "2 RUE DE LA PAIX"
            ],
            "city": "PARIS",
            "postalCode": "75001",
            "country": "FRA",
            "use": "home",
            "extension": [
              {
                "url": "https://interop.esante.gouv.fr/ig/fhir/annuaire/StructureDefinition/commune-cog-code",
                "valueString": "75000"
              }
            ]
          }
        ],
        "link": [
          {
            "target": {
              "reference": "https://fhir.org/FHIRHub/Patient/33048fa0-562c-45e1-928d-34a136269fd7"
            }
          }
        ]
      },
      "request": {
        "method": "POST",
        "url": "Person"
      }
    },
    {
      "fullUrl": "https://fhir.org/FHIRHub/Practitioner/7044f6bb-85cd-41d6-91e2-8dacc3e5ba66",
      "resource": {
        "resourceType": "Practitioner",
        "id": "7044f6bb-85cd-41d6-91e2-8dacc3e5ba66",
        "identifier": [
          {
            "system": "http://example.org/fhir/sid/provider-id",
            "value": "456789"
          }
        ],
        "name": [
          {
            "family": "MARTIN",
            "given": [
              "SOPHIE"
            ]
          }
        ]
      },
      "request": {
        "method": "POST",
        "url": "Practitioner"
      }
    },
    {
      "fullUrl": "https://fhir.org/FHIRHub/Encounter/6b1bc3fc-d594-4ad4-bada-874cec7813c4",
      "resource": {
        "resourceType": "Encounter",
        "id": "6b1bc3fc-d594-4ad4-bada-874cec7813c4",
        "status": "finished",
        "class": {
          "system": "http://terminology.hl7.org/CodeSystem/v3-ActCode",
          "code": "I",
          "display": "Inpatient"
        },
        "subject": {
          "reference": "https://fhir.org/FHIRHub/Patient/33048fa0-562c-45e1-928d-34a136269fd7"
        },
        "period": {
          "end": "2023-04-27T15:32:03+00:00"
        },
        "location": [
          {
            "location": {
              "display": "CHIRURGIE^101^1"
            }
          }
        ],
        "participant": [
          {
            "individual": {
              "reference": "https://fhir.org/FHIRHub/Practitioner/7044f6bb-85cd-41d6-91e2-8dacc3e5ba66"
            }
          }
        ]
      },
      "request": {
        "method": "POST",
        "url": "Encounter"
      }
    },
    {
      "fullUrl": "https://fhir.org/FHIRHub/Observation/ff666736-6622-44bd-ac69-119df3d3e7d6",
      "resource": {
        "resourceType": "Observation",
        "id": "ff666736-6622-44bd-ac69-119df3d3e7d6",
        "status": "final",
        "code": {
          "coding": [
            {
              "system": "http://loinc.org",
              "code": "8480-6",
              "display": "Pression artérielle systolique"
            }
          ]
        },
        "subject": {
          "reference": "https://fhir.org/FHIRHub/Patient/33048fa0-562c-45e1-928d-34a136269fd7"
        },
        "encounter": {
          "reference": "https://fhir.org/FHIRHub/Encounter/6b1bc3fc-d594-4ad4-bada-874cec7813c4"
        },
        "valueQuantity": {
          "value": 120,
          "unit": "mm[Hg]",
          "system": "http://unitsofmeasure.org",
          "code": "mm[Hg]"
        },
        "interpretation": [
          {
            "coding": [
              {
                "system": "http://terminology.hl7.org/CodeSystem/v3-ObservationInterpretation",
                "code": "N",
                "display": "N"
              }
            ]
          }
        ]
      },
      "request": {
        "method": "POST",
        "url": "Observation"
      }
    },
    {
      "fullUrl": "https://fhir.org/FHIRHub/Observation/6d814181-dec5-4558-adc5-9132cf9fccda",
      "resource": {
        "resourceType": "Observation",
        "id": "6d814181-dec5-4558-adc5-9132cf9fccda",
        "status": "final",
        "code": {
          "coding": [
            {
              "system": "http://loinc.org",
              "code": "8462-4",
              "display": "Pression artérielle diastolique"
            }
          ]
        },
        "subject": {
          "reference": "https://fhir.org/FHIRHub/Patient/33048fa0-562c-45e1-928d-34a136269fd7"
        },
        "encounter": {
          "reference": "https://fhir.org/FHIRHub/Encounter/6b1bc3fc-d594-4ad4-bada-874cec7813c4"
        },
        "valueQuantity": {
          "value": 80,
          "unit": "mm[Hg]",
          "system": "http://unitsofmeasure.org",
          "code": "mm[Hg]"
        },
        "interpretation": [
          {
            "coding": [
              {
                "system": "http://terminology.hl7.org/CodeSystem/v3-ObservationInterpretation",
                "code": "N",
                "display": "N"
              }
            ]
          }
        ]
      },
      "request": {
        "method": "POST",
        "url": "Observation"
      }
    },
    {
      "fullUrl": "https://fhir.org/FHIRHub/Observation/36abd0b2-73a2-455c-a054-f6d89eed78e5",
      "resource": {
        "resourceType": "Observation",
        "id": "36abd0b2-73a2-455c-a054-f6d89eed78e5",
        "status": "final",
        "code": {
          "coding": [
            {
              "system": "http://loinc.org",
              "code": "8310-5",
              "display": "Température corporelle"
            }
          ]
        },
        "subject": {
          "reference": "https://fhir.org/FHIRHub/Patient/33048fa0-562c-45e1-928d-34a136269fd7"
        },
        "encounter": {
          "reference": "https://fhir.org/FHIRHub/Encounter/6b1bc3fc-d594-4ad4-bada-874cec7813c4"
        },
        "valueQuantity": {
          "value": 37.1,
          "unit": "Cel",
          "system": "http://unitsofmeasure.org",
          "code": "Cel"
        },
        "interpretation": [
          {
            "coding": [
              {
                "system": "http://terminology.hl7.org/CodeSystem/v3-ObservationInterpretation",
                "code": "N",
                "display": "N"
              }
            ]
          }
        ]
      },
      "request": {
        "method": "POST",
        "url": "Observation"
      }
    },
    {
      "fullUrl": "https://fhir.org/FHIRHub/Organization/ec3e89eb-844b-4060-a376-1f641821b4cd",
      "resource": {
        "resourceType": "Organization",
        "id": "ec3e89eb-844b-4060-a376-1f641821b4cd",
        "identifier": [
          {
            "system": "http://terminology.hl7.org/CodeSystem/v3-HL7",
            "value": "SENDING_FACILITY"
          }
        ],
        "name": "SENDING_FACILITY"
      },
      "request": {
        "method": "POST",
        "url": "Organization"
      }
    }
  ]
}