{
  "resourceType": "Bundle",
  "type": "transaction",
  "entry": [
    {
      "resource": {
        "resourceType": "Patient",
        "id": "patient-eda925b4",
        "identifier": [
          {
            "value": "123456",
            "system": "urn:oid:CEGI",
            "type": {
              "coding": [
                {
                  "system": "http://terminology.hl7.org/CodeSystem/v2-0203",
                  "code": "PI"
                }
              ]
            }
          },
          {
            "value": "987654321654321",
            "system": "urn:oid:1.2.250.1.213.1.4.8",
            "type": {
              "coding": [
                {
                  "system": "http://terminology.hl7.org/CodeSystem/v2-0203",
                  "code": "INS"
                }
              ]
            }
          },
          {
            "value": "987654321",
            "system": "urn:oid:CEGI",
            "type": {
              "coding": [
                {
                  "system": "http://terminology.hl7.org/CodeSystem/v2-0203",
                  "code": "PIP"
                }
              ]
            }
          }
        ],
        "name": [
          {
            "family": "DURAND",
            "given": [
              "SYLVIE",
              "BERTHE",
              "ALICE"
            ],
            "use": "official"
          }
        ],
        "telecom": [
          {
            "value": "SYLVIE.DURAND@WANADOO.FR",
            "system": "email"
          }
        ],
        "address": [
          {
            "line": [
              "7 RUE DE LA MAIRIE"
            ],
            "city": "PARIS",
            "postalCode": "75001",
            "use": "home"
          }
        ],
        "contact": [
          {
            "relationship": [
              {
                "coding": [
                  {
                    "system": "http://terminology.hl7.org/CodeSystem/v3-RoleCode",
                    "code": "unknown"
                  }
                ]
              }
            ],
            "name": {
              "family": "DURAND",
              "given": [
                "PIERRE"
              ]
            }
          }
        ],
        "birthDate": "1948-09-09",
        "gender": "female"
      },
      "request": {
        "method": "POST",
        "url": "Patient"
      }
    },
    {
      "resource": {
        "resourceType": "Practitioner",
        "id": "practitioner-b517827e",
        "identifier": [
          {
            "system": "http://terminology.hl7.fr/CodeSystem/v2-0203",
            "value": "U"
          }
        ],
        "name": [
          {
            "family": "123456789",
            "given": [
              "DUBOIS"
            ]
          }
        ]
      },
      "request": {
        "method": "POST",
        "url": "Practitioner"
      }
    },
    {
      "resource": {
        "resourceType": "Encounter",
        "id": "encounter-1505b2ee",
        "status": "in-progress",
        "class": {
          "system": "http://terminology.hl7.org/CodeSystem/v3-ActCode",
          "code": "IMP"
        },
        "subject": {
          "reference": "Patient/patient-eda925b4"
        },
        "participant": [
          {
            "type": [
              {
                "coding": [
                  {
                    "system": "http://terminology.hl7.org/CodeSystem/v3-ParticipationType",
                    "code": "ATND"
                  }
                ]
              }
            ],
            "individual": {
              "reference": "Practitioner/practitioner-b517827e"
            }
          }
        ],
        "period": {
          "start": "2024-03-26T00:00:00+00:00"
        }
      },
      "request": {
        "method": "POST",
        "url": "Encounter"
      }
    }
  ]
}