{
  "resourceType": "Bundle",
  "type": "transaction",
  "id": "ee6e0f84-3b73-445e-a00b-b0d026f10c27",
  "timestamp": "2025-04-27T16:14:29.652Z",
  "meta": {
    "profile": [
      "https://interop.esante.gouv.fr/ig/fhir/hl7/StructureDefinition/hl7-bundle"
    ],
    "security": [
      {
        "system": "https://mos.esante.gouv.fr/NOS/TRE_R283-Confidentiality/FHIR/TRE-R283-Confidentiality",
        "code": "N",
        "display": "Normal"
      }
    ],
    "tag": [
      {
        "system": "https://mos.esante.gouv.fr/NOS/TRE_R287-FormatCode/FHIR/TRE-R287-FormatCode",
        "code": "urn:ans:ci-sis:hl7:v2.5",
        "display": "HL7 v2.5 converti en FHIR R4 (ANS)"
      }
    ]
  },
  "entry": [
    {
      "fullUrl": "https://fhir.org/FHIRHub/Patient/29421187-5637-4f93-83b4-6323f2e35fec",
      "resource": {
        "resourceType": "Patient",
        "id": "29421187-5637-4f93-83b4-6323f2e35fec",
        "identifier": [
          {
            "system": "urn:HOSPITAL",
            "value": "12345",
            "type": {
              "coding": [
                {
                  "system": "http://terminology.hl7.org/CodeSystem/v2-0203",
                  "code": "MR",
                  "display": "Medical record number"
                }
              ]
            },
            "assigner": {
              "display": "HOSPITAL"
            }
          }
        ],
        "name": [
          {
            "family": "DUPONT",
            "given": [
              "JEAN",
              "MARC"
            ]
          }
        ],
        "birthDate": "1980-01-01",
        "gender": "male",
        "address": [
          {
            "line": [
              "1 RUE DE PARIS"
            ],
            "city": "PARIS",
            "postalCode": "75001",
            "country": "FRANCE"
          }
        ],
        "telecom": [
          {
            "system": "phone",
            "value": "5551234567",
            "use": "home"
          },
          {
            "system": "phone",
            "value": "5559876543",
            "use": "work"
          }
        ]
      },
      "request": {
        "method": "POST",
        "url": "Patient"
      }
    },
    {
      "fullUrl": "https://fhir.org/FHIRHub/Person/9bb1af43-5962-4036-86e9-ab69ca51b2c2",
      "resource": {
        "resourceType": "Person",
        "id": "9bb1af43-5962-4036-86e9-ab69ca51b2c2",
        "name": [
          {
            "family": "DUPONT",
            "given": [
              "JEAN",
              "MARC"
            ]
          }
        ],
        "gender": "male",
        "birthDate": "1980-01-01",
        "telecom": [
          {
            "system": "phone",
            "value": "5551234567",
            "use": "home"
          },
          {
            "system": "phone",
            "value": "5559876543",
            "use": "work"
          }
        ],
        "address": [
          {
            "line": [
              "1 RUE DE PARIS"
            ],
            "city": "PARIS",
            "postalCode": "75001",
            "country": "FRANCE"
          }
        ],
        "link": [
          {
            "target": {
              "reference": "https://fhir.org/FHIRHub/Patient/29421187-5637-4f93-83b4-6323f2e35fec"
            }
          }
        ]
      },
      "request": {
        "method": "POST",
        "url": "Person"
      }
    },
    {
      "fullUrl": "https://fhir.org/FHIRHub/Practitioner/8a1024b5-1ea4-48f6-84ed-eca6e0e57600",
      "resource": {
        "resourceType": "Practitioner",
        "id": "8a1024b5-1ea4-48f6-84ed-eca6e0e57600",
        "identifier": [
          {
            "system": "http://example.org/fhir/sid/provider-id",
            "value": "004777"
          }
        ],
        "name": [
          {
            "family": "MARTIN",
            "given": [
              "ROBERT"
            ]
          }
        ]
      },
      "request": {
        "method": "POST",
        "url": "Practitioner"
      }
    },
    {
      "fullUrl": "https://fhir.org/FHIRHub/Encounter/0ac3191a-3b5b-406f-b181-4548e0dd6368",
      "resource": {
        "resourceType": "Encounter",
        "id": "0ac3191a-3b5b-406f-b181-4548e0dd6368",
        "status": "finished",
        "class": {
          "system": "http://terminology.hl7.org/CodeSystem/v3-ActCode",
          "code": "I",
          "display": "Inpatient"
        },
        "subject": {
          "reference": "https://fhir.org/FHIRHub/Patient/29421187-5637-4f93-83b4-6323f2e35fec"
        },
        "period": {
          "start": "2023-04-26T13:14:15+00:00"
        },
        "location": [
          {
            "location": {
              "display": "ROOM101^BED1"
            }
          }
        ],
        "participant": [
          {
            "individual": {
              "reference": "https://fhir.org/FHIRHub/Practitioner/8a1024b5-1ea4-48f6-84ed-eca6e0e57600"
            }
          }
        ]
      },
      "request": {
        "method": "POST",
        "url": "Encounter"
      }
    },
    {
      "fullUrl": "https://fhir.org/FHIRHub/Observation/cec2c55c-f4cc-46d4-8f15-18605367b78b",
      "resource": {
        "resourceType": "Observation",
        "id": "cec2c55c-f4cc-46d4-8f15-18605367b78b",
        "status": "final",
        "code": {
          "coding": [
            {
              "system": "http://loinc.org",
              "code": "HEIGHT",
              "display": "HEIGHT"
            }
          ]
        },
        "subject": {
          "reference": "https://fhir.org/FHIRHub/Patient/29421187-5637-4f93-83b4-6323f2e35fec"
        },
        "encounter": {
          "reference": "https://fhir.org/FHIRHub/Encounter/0ac3191a-3b5b-406f-b181-4548e0dd6368"
        },
        "valueQuantity": {
          "value": 180,
          "unit": "cm",
          "system": "http://unitsofmeasure.org",
          "code": "cm"
        },
        "effectiveDateTime": "2023-04-26T13:14:15+00:00"
      },
      "request": {
        "method": "POST",
        "url": "Observation"
      }
    },
    {
      "fullUrl": "https://fhir.org/FHIRHub/Observation/26f4838e-afd2-458b-8b26-d15da99d42a0",
      "resource": {
        "resourceType": "Observation",
        "id": "26f4838e-afd2-458b-8b26-d15da99d42a0",
        "status": "final",
        "code": {
          "coding": [
            {
              "system": "http://loinc.org",
              "code": "WEIGHT",
              "display": "WEIGHT"
            }
          ]
        },
        "subject": {
          "reference": "https://fhir.org/FHIRHub/Patient/29421187-5637-4f93-83b4-6323f2e35fec"
        },
        "encounter": {
          "reference": "https://fhir.org/FHIRHub/Encounter/0ac3191a-3b5b-406f-b181-4548e0dd6368"
        },
        "valueQuantity": {
          "value": 75,
          "unit": "kg",
          "system": "http://unitsofmeasure.org",
          "code": "kg"
        },
        "effectiveDateTime": "2023-04-26T13:14:15+00:00"
      },
      "request": {
        "method": "POST",
        "url": "Observation"
      }
    },
    {
      "fullUrl": "https://fhir.org/FHIRHub/Observation/ccfa9727-b043-4ac4-bd96-e99e121d3d14",
      "resource": {
        "resourceType": "Observation",
        "id": "ccfa9727-b043-4ac4-bd96-e99e121d3d14",
        "status": "final",
        "code": {
          "coding": [
            {
              "system": "http://loinc.org",
              "code": "TEMPERATURE",
              "display": "TEMPERATURE"
            }
          ]
        },
        "subject": {
          "reference": "https://fhir.org/FHIRHub/Patient/29421187-5637-4f93-83b4-6323f2e35fec"
        },
        "encounter": {
          "reference": "https://fhir.org/FHIRHub/Encounter/0ac3191a-3b5b-406f-b181-4548e0dd6368"
        },
        "valueQuantity": {
          "value": 37.5,
          "unit": "C",
          "system": "http://unitsofmeasure.org",
          "code": "C"
        },
        "effectiveDateTime": "2023-04-26T13:14:15+00:00"
      },
      "request": {
        "method": "POST",
        "url": "Observation"
      }
    },
    {
      "fullUrl": "https://fhir.org/FHIRHub/Observation/0d99d3f2-4925-4822-95d2-8a786d025215",
      "resource": {
        "resourceType": "Observation",
        "id": "0d99d3f2-4925-4822-95d2-8a786d025215",
        "status": "final",
        "code": {
          "coding": [
            {
              "system": "http://loinc.org",
              "code": "COMMENT",
              "display": "COMMENT"
            }
          ]
        },
        "valueString": "Le patient est en bonne santé générale",
        "subject": {
          "reference": "https://fhir.org/FHIRHub/Patient/29421187-5637-4f93-83b4-6323f2e35fec"
        },
        "encounter": {
          "reference": "https://fhir.org/FHIRHub/Encounter/0ac3191a-3b5b-406f-b181-4548e0dd6368"
        }
      },
      "request": {
        "method": "POST",
        "url": "Observation"
      }
    },
    {
      "fullUrl": "https://fhir.org/FHIRHub/Organization/fdc7aa32-b39f-4512-b226-e073f97f12f5",
      "resource": {
        "resourceType": "Organization",
        "id": "fdc7aa32-b39f-4512-b226-e073f97f12f5",
        "identifier": [
          {
            "system": "http://terminology.hl7.org/CodeSystem/v3-HL7",
            "value": "SENDING_FACILITY"
          }
        ],
        "name": "SENDING_FACILITY"
      },
      "request": {
        "method": "POST",
        "url": "Organization"
      }
    },
    {
      "fullUrl": "https://fhir.org/FHIRHub/RelatedPerson/6a2cc3a5-9a71-4b24-8907-85856210abad",
      "resource": {
        "resourceType": "RelatedPerson",
        "id": "6a2cc3a5-9a71-4b24-8907-85856210abad",
        "active": true,
        "patient": {
          "reference": "https://fhir.org/FHIRHub/Patient/29421187-5637-4f93-83b4-6323f2e35fec"
        },
        "relationship": [
          {
            "coding": [
              {
                "system": "http://terminology.hl7.org/CodeSystem/v3-RoleCode",
                "code": "SPS",
                "display": "SPOUSE"
              }
            ]
          }
        ],
        "name": [
          {
            "family": "DUPONT",
            "given": [
              "MARIE"
            ]
          }
        ],
        "telecom": [
          {
            "system": "phone",
            "value": "5551234567",
            "use": "home"
          }
        ],
        "address": [
          {
            "line": [
              "1 RUE DE PARIS"
            ],
            "city": "PARIS",
            "postalCode": "75001",
            "country": "FRANCE"
          }
        ]
      },
      "request": {
        "method": "POST",
        "url": "RelatedPerson"
      }
    }
  ]
}