{
  "resourceType": "Bundle",
  "type": "transaction",
  "id": "cf1425d5-e7f2-4a09-af80-0c5a375c407f",
  "timestamp": "2025-04-27T18:42:06.812Z",
  "meta": {
    "profile": [
      "https://interop.esante.gouv.fr/ig/fhir/hl7/StructureDefinition/hl7-bundle"
    ],
    "security": [
      {
        "system": "https://mos.esante.gouv.fr/NOS/TRE_R283-Confidentiality/FHIR/TRE-R283-Confidentiality",
        "code": "N",
        "display": "Normal"
      }
    ],
    "tag": [
      {
        "system": "https://mos.esante.gouv.fr/NOS/TRE_R287-FormatCode/FHIR/TRE-R287-FormatCode",
        "code": "urn:ans:ci-sis:hl7:v2.5",
        "display": "HL7 v2.5 converti en FHIR R4 (ANS)"
      }
    ]
  },
  "entry": [
    {
      "fullUrl": "https://fhir.org/FHIRHub/Patient/7a1b8a7b-580d-49b1-8620-7ac75d64eb11",
      "resource": {
        "resourceType": "Patient",
        "id": "7a1b8a7b-580d-49b1-8620-7ac75d64eb11",
        "identifier": [
          {
            "system": "urn:oid:1.2.250.1.211.10.200.1",
            "value": "1234567",
            "type": {
              "coding": [
                {
                  "system": "http://terminology.hl7.org/CodeSystem/v2-0203",
                  "code": "PI",
                  "display": "Patient internal identifier"
                }
              ]
            },
            "assigner": {
              "display": "MCK"
            }
          },
          {
            "system": "urn:oid:1.2.250.1.213.1.4.2",
            "value": "987654321987654",
            "type": {
              "coding": [
                {
                  "system": "http://terminology.hl7.org/CodeSystem/v2-0203",
                  "code": "INS-C",
                  "display": "Insurance Card"
                }
              ]
            },
            "assigner": {
              "display": "ASIP-SANTE-INS-C"
            }
          },
          {
            "system": "urn:oid:1.2.250.1.213.1.4.8",
            "value": "123456789012345",
            "type": {
              "coding": [
                {
                  "system": "http://terminology.hl7.org/CodeSystem/v2-0203",
                  "code": "INS",
                  "display": "INS"
                }
              ]
            },
            "extension": [
              {
                "url": "https://apifhir.annuaire.sante.fr/ws-sync/exposed/structuredefinition/INS-NIR-Verifie",
                "valueBoolean": true
              },
              {
                "url": "https://apifhir.annuaire.sante.fr/ws-sync/exposed/structuredefinition/INS-Source",
                "valueCode": "RECUPERE"
              },
              {
                "url": "https://apifhir.annuaire.sante.fr/ws-sync/exposed/structuredefinition/INS-DateConsultation",
                "valueDateTime": "2025-04-27"
              }
            ],
            "assigner": {
              "display": "ASIP-SANTE-INS-NIR"
            }
          }
        ],
        "name": [
          {
            "family": "DUPONT",
            "given": [
              "JEAN PHILIPPE"
            ]
          }
        ],
        "birthDate": "1960-05-09",
        "gender": "male",
        "address": [
          {
            "line": [
              "8 RUE DE PARIS"
            ],
            "city": "PARIS",
            "postalCode": "75001",
            "country": "FRA",
            "use": "home",
            "extension": [
              {
                "url": "https://interop.esante.gouv.fr/ig/fhir/annuaire/StructureDefinition/commune-cog-code",
                "valueString": "97000"
              },
              {
                "url": "http://hl7.org/fhir/StructureDefinition/iso21090-ADXP-precinct",
                "valueString": "97"
              }
            ]
          }
        ],
        "telecom": [
          {
            "system": "phone",
            "value": "+33696039637",
            "use": "home",
            "extension": [
              {
                "url": "http://hl7.org/fhir/StructureDefinition/rendering-style",
                "valueString": "+33 n nn nn nn nn"
              }
            ]
          },
          {
            "system": "phone",
            "value": "+33596000093",
            "use": "home",
            "extension": [
              {
                "url": "http://hl7.org/fhir/StructureDefinition/rendering-style",
                "valueString": "+33 n nn nn nn nn"
              }
            ]
          }
        ]
      },
      "request": {
        "method": "POST",
        "url": "Patient"
      }
    },
    {
      "fullUrl": "https://fhir.org/FHIRHub/Person/8a3b29e9-c855-4445-803f-df875a0d434c",
      "resource": {
        "resourceType": "Person",
        "id": "8a3b29e9-c855-4445-803f-df875a0d434c",
        "name": [
          {
            "family": "DUPONT",
            "given": [
              "JEAN PHILIPPE"
            ]
          }
        ],
        "gender": "male",
        "birthDate": "1960-05-09",
        "telecom": [
          {
            "system": "phone",
            "value": "+33696039637",
            "use": "home",
            "extension": [
              {
                "url": "http://hl7.org/fhir/StructureDefinition/rendering-style",
                "valueString": "+33 n nn nn nn nn"
              }
            ]
          },
          {
            "system": "phone",
            "value": "+33596000093",
            "use": "home",
            "extension": [
              {
                "url": "http://hl7.org/fhir/StructureDefinition/rendering-style",
                "valueString": "+33 n nn nn nn nn"
              }
            ]
          }
        ],
        "address": [
          {
            "line": [
              "8 RUE DE PARIS"
            ],
            "city": "PARIS",
            "postalCode": "75001",
            "country": "FRA",
            "use": "home",
            "extension": [
              {
                "url": "https://interop.esante.gouv.fr/ig/fhir/annuaire/StructureDefinition/commune-cog-code",
                "valueString": "97000"
              },
              {
                "url": "http://hl7.org/fhir/StructureDefinition/iso21090-ADXP-precinct",
                "valueString": "97"
              }
            ]
          }
        ],
        "link": [
          {
            "target": {
              "reference": "https://fhir.org/FHIRHub/Patient/7a1b8a7b-580d-49b1-8620-7ac75d64eb11"
            }
          }
        ]
      },
      "request": {
        "method": "POST",
        "url": "Person"
      }
    },
    {
      "fullUrl": "https://fhir.org/FHIRHub/Encounter/799c2898-b3cc-4c2c-b5fe-549e12d89eb1",
      "resource": {
        "resourceType": "Encounter",
        "id": "799c2898-b3cc-4c2c-b5fe-549e12d89eb1",
        "status": "finished",
        "class": {
          "system": "http://terminology.hl7.org/CodeSystem/v3-ActCode",
          "code": "I",
          "display": "Inpatient"
        },
        "subject": {
          "reference": "https://fhir.org/FHIRHub/Patient/7a1b8a7b-580d-49b1-8620-7ac75d64eb11"
        },
        "period": {
          "start": "2025-04-17T05:04:00+00:00"
        }
      },
      "request": {
        "method": "POST",
        "url": "Encounter"
      }
    },
    {
      "fullUrl": "https://fhir.org/FHIRHub/Organization/d0a5b04f-8f96-4d07-b7fa-6f970505cc9c",
      "resource": {
        "resourceType": "Organization",
        "id": "d0a5b04f-8f96-4d07-b7fa-6f970505cc9c",
        "identifier": [
          {
            "system": "http://terminology.hl7.org/CodeSystem/v3-HL7",
            "value": "MCK"
          }
        ],
        "name": "MCK"
      },
      "request": {
        "method": "POST",
        "url": "Organization"
      }
    },
    {
      "fullUrl": "https://fhir.org/FHIRHub/Coverage/57f5cff4-4e30-4198-89f3-7f52762c82c4",
      "resource": {
        "resourceType": "Coverage",
        "id": "57f5cff4-4e30-4198-89f3-7f52762c82c4",
        "status": "active",
        "type": {
          "coding": [
            {
              "system": "https://mos.esante.gouv.fr/NOS/JDV_J65-TypeMutuelles/FHIR/JDV-J65-TypeMutuelles",
              "code": "AMO",
              "display": "Assurance Maladie Obligatoire"
            }
          ]
        },
        "subscriberId": "123456789012345",
        "beneficiary": {
          "reference": "https://fhir.org/FHIRHub/Patient/7a1b8a7b-580d-49b1-8620-7ac75d64eb11"
        },
        "period": {
          "end": "2025-12-31"
        },
        "extension": [
          {
            "url": "https://interop.esante.gouv.fr/ig/fhir/ror/StructureDefinition/ror-organization-field-codeNir",
            "valueString": "123456789012345"
          }
        ]
      },
      "request": {
        "method": "POST",
        "url": "Coverage"
      }
    },
    {
      "fullUrl": "https://fhir.org/FHIRHub/RelatedPerson/d2400ae2-576e-4a00-8c73-0113bbcbca8d",
      "resource": {
        "resourceType": "RelatedPerson",
        "id": "d2400ae2-576e-4a00-8c73-0113bbcbca8d",
        "active": true,
        "patient": {
          "reference": "https://fhir.org/FHIRHub/Patient/7a1b8a7b-580d-49b1-8620-7ac75d64eb11"
        },
        "name": [
          {
            "family": "DUPONT",
            "given": [
              "MARIE"
            ]
          }
        ],
        "relationship": [
          {
            "coding": [
              {
                "system": "http://terminology.hl7.org/CodeSystem/v3-RoleCode",
                "code": "EXT",
                "display": "OTH"
              }
            ]
          }
        ]
      },
      "request": {
        "method": "POST",
        "url": "RelatedPerson"
      }
    },
    {
      "fullUrl": "https://fhir.org/FHIRHub/Practitioner/e7bce77b-7c80-47dd-bcaf-cc2866023873",
      "resource": {
        "resourceType": "Practitioner",
        "id": "e7bce77b-7c80-47dd-bcaf-cc2866023873",
        "identifier": [
          {
            "system": "urn:oid:http://example.org/fhir/sid/provider-id",
            "value": "123456789",
            "type": {
              "coding": [
                {
                  "system": "http://terminology.hl7.org/CodeSystem/v2-0203",
                  "code": "unknown",
                  "display": "Provider Number"
                }
              ]
            }
          }
        ],
        "name": [
          {
            "family": "MARTIN",
            "given": [
              "PAUL"
            ]
          }
        ],
        "active": true,
        "address": [
          {
            "line": [
              "8 RUE DE LA SANTE"
            ],
            "postalCode": "75001",
            "country": "UNK"
          }
        ]
      },
      "request": {
        "method": "POST",
        "url": "Practitioner"
      }
    },
    {
      "fullUrl": "https://fhir.org/FHIRHub/PractitionerRole/856cac5c-8b4f-4fe0-b50e-c96d7b74a2f8",
      "resource": {
        "resourceType": "PractitionerRole",
        "id": "856cac5c-8b4f-4fe0-b50e-c96d7b74a2f8",
        "practitioner": {
          "reference": "Practitioner/e7bce77b-7c80-47dd-bcaf-cc2866023873"
        },
        "code": [
          {
            "coding": [
              {
                "system": "https://mos.esante.gouv.fr/NOS/TRE_A01-CadreExercice/FHIR/TRE-A01-CadreExercice",
                "code": "S",
                "display": "Médecin"
              },
              {
                "system": "http://terminology.hl7.org/CodeSystem/v2-0443",
                "code": "ODRP",
                "display": "Unknown Role"
              }
            ]
          }
        ],
        "active": true,
        "period": {},
        "subject": {
          "reference": "https://fhir.org/FHIRHub/Patient/7a1b8a7b-580d-49b1-8620-7ac75d64eb11"
        }
      },
      "request": {
        "method": "POST",
        "url": "PractitionerRole"
      }
    }
  ]
}