{
  "resourceType": "Bundle",
  "type": "transaction",
  "id": "ea4aa848-bb11-4b78-96ca-7894a67a6333",
  "timestamp": "2025-04-27T02:19:40.960Z",
  "entry": [
    {
      "fullUrl": "http://example.org/fhir/Patient/15705d71-31ad-4002-8fba-f98e8d35a639",
      "resource": {
        "resourceType": "Patient",
        "id": "15705d71-31ad-4002-8fba-f98e8d35a639",
        "identifier": [
          {
            "system": "urn:oid:1.2.250.1.211.10.200.1",
            "value": "1234567",
            "type": {
              "coding": [
                {
                  "system": "http://terminology.hl7.org/CodeSystem/v2-0203",
                  "code": "PI",
                  "display": "Patient internal identifier"
                }
              ]
            },
            "assigner": {
              "display": "MCK"
            }
          },
          {
            "system": "urn:oid:1.2.250.1.213.1.4.2",
            "value": "987654321987654",
            "type": {
              "coding": [
                {
                  "system": "http://terminology.hl7.org/CodeSystem/v2-0203",
                  "code": "INS-C",
                  "display": "Insurance Card"
                }
              ]
            },
            "assigner": {
              "display": "ASIP-SANTE-INS-C"
            }
          },
          {
            "system": "urn:oid:1.2.250.1.213.1.4.8",
            "value": "123456789012345",
            "type": {
              "coding": [
                {
                  "system": "http://terminology.hl7.org/CodeSystem/v2-0203",
                  "code": "INS",
                  "display": "INS"
                }
              ]
            },
            "assigner": {
              "display": "ASIP-SANTE-INS-NIR"
            }
          }
        ],
        "name": [
          {
            "family": "DUPONT",
            "given": [
              "JEAN PHILIPPE"
            ]
          }
        ],
        "birthDate": "1960-05-09",
        "gender": "male",
        "address": [
          {
            "line": [
              "8 RUE DE PARIS"
            ],
            "city": "PARIS",
            "state": "",
            "postalCode": "75001",
            "country": "FRA",
            "use": "home"
          }
        ],
        "telecom": [
          {
            "system": "phone",
            "value": "0612345678",
            "use": "home"
          },
          {
            "system": "phone",
            "value": "0123456789",
            "use": "home"
          }
        ]
      },
      "request": {
        "method": "POST",
        "url": "Patient"
      }
    },
    {
      "fullUrl": "http://example.org/fhir/Person/663505e4-c9ea-45e0-b511-f2f501639ec3",
      "resource": {
        "resourceType": "Person",
        "id": "663505e4-c9ea-45e0-b511-f2f501639ec3",
        "name": [
          {
            "family": "DUPONT",
            "given": [
              "JEAN PHILIPPE"
            ]
          }
        ],
        "gender": "male",
        "birthDate": "1960-05-09",
        "telecom": [
          {
            "system": "phone",
            "value": "0612345678",
            "use": "home"
          },
          {
            "system": "phone",
            "value": "0123456789",
            "use": "home"
          }
        ],
        "address": [
          {
            "line": [
              "8 RUE DE PARIS"
            ],
            "city": "PARIS",
            "state": "",
            "postalCode": "75001",
            "country": "FRA",
            "use": "home"
          }
        ],
        "link": [
          {
            "target": {
              "reference": "http://example.org/fhir/Patient/15705d71-31ad-4002-8fba-f98e8d35a639"
            }
          }
        ]
      },
      "request": {
        "method": "POST",
        "url": "Person"
      }
    },
    {
      "fullUrl": "http://example.org/fhir/Encounter/dd3ad41c-97a5-4830-8742-0378765ac40f",
      "resource": {
        "resourceType": "Encounter",
        "id": "dd3ad41c-97a5-4830-8742-0378765ac40f",
        "status": "completed",
        "class": [
          {
            "system": "http://terminology.hl7.org/CodeSystem/v3-ActCode",
            "code": "I",
            "display": "Inpatient"
          }
        ],
        "subject": {
          "reference": "http://example.org/fhir/Patient/15705d71-31ad-4002-8fba-f98e8d35a639"
        },
        "period": {
          "start": "2025-04-17T05:04:00+00:00"
        }
      },
      "request": {
        "method": "POST",
        "url": "Encounter"
      }
    },
    {
      "fullUrl": "http://example.org/fhir/Organization/8ec9b005-8072-4e7c-aa42-9dba7a7b2a3f",
      "resource": {
        "resourceType": "Organization",
        "id": "8ec9b005-8072-4e7c-aa42-9dba7a7b2a3f",
        "identifier": [
          {
            "system": "http://terminology.hl7.org/CodeSystem/v3-HL7",
            "value": "EAI"
          }
        ],
        "name": "EAI"
      },
      "request": {
        "method": "POST",
        "url": "Organization"
      }
    },
    {
      "fullUrl": "http://example.org/fhir/Coverage/1339bf07-60e3-4a7a-ada4-89130d10934c",
      "resource": {
        "resourceType": "Coverage",
        "id": "1339bf07-60e3-4a7a-ada4-89130d10934c",
        "status": "active",
        "kind": "insurance",
        "type": {
          "coding": [
            {
              "system": "http://terminology.hl7.org/CodeSystem/v3-ActCode",
              "code": "EHCPOL",
              "display": "Extended healthcare"
            }
          ]
        },
        "subscriberId": [
          "123456789012345"
        ],
        "beneficiary": {
          "reference": "http://example.org/fhir/Patient/15705d71-31ad-4002-8fba-f98e8d35a639"
        },
        "period": {
          "end": "2025-12-31"
        }
      },
      "request": {
        "method": "POST",
        "url": "Coverage"
      }
    },
    {
      "fullUrl": "http://example.org/fhir/RelatedPerson/cbfe53ef-16e5-4644-9621-ff1673f48795",
      "resource": {
        "resourceType": "RelatedPerson",
        "id": "cbfe53ef-16e5-4644-9621-ff1673f48795",
        "active": true,
        "patient": {
          "reference": "http://example.org/fhir/Patient/15705d71-31ad-4002-8fba-f98e8d35a639"
        },
        "relationship": [
          {
            "coding": [
              {
                "system": "http://terminology.hl7.org/CodeSystem/v3-RoleCode",
                "code": "EXT",
                "display": "Contact"
              }
            ]
          }
        ],
        "name": [
          {
            "family": "DUPONT",
            "given": [
              "MARIE"
            ]
          }
        ],
        "telecom": [],
        "address": [
          {
            "line": [],
            "city": "",
            "state": "",
            "postalCode": "",
            "country": "UNK",
            "use": "home"
          },
          {
            "line": [],
            "city": "",
            "state": "",
            "postalCode": "",
            "country": "UNK",
            "use": "home"
          }
        ]
      },
      "request": {
        "method": "POST",
        "url": "RelatedPerson"
      }
    },
    {
      "fullUrl": "http://example.org/fhir/Practitioner/acc35814-acb8-446d-974c-2fb345926689",
      "resource": {
        "resourceType": "Practitioner",
        "id": "acc35814-acb8-446d-974c-2fb345926689",
        "identifier": [
          {
            "system": "urn:oid:http://example.org/fhir/sid/provider-id",
            "value": "123456789",
            "type": {
              "coding": [
                {
                  "system": "http://terminology.hl7.org/CodeSystem/v2-0203",
                  "code": "unknown",
                  "display": "Provider Number"
                }
              ]
            }
          }
        ],
        "name": [
          {
            "family": "MARTIN",
            "given": [
              "PAUL"
            ],
            "prefix": []
          }
        ],
        "active": true,
        "qualification": [
          {
            "code": {
              "coding": [
                {
                  "system": "http://terminology.hl7.org/CodeSystem/v2-0443",
                  "code": "ODRP",
                  "display": "Unknown Qualification"
                }
              ]
            }
          }
        ],
        "address": [
          {
            "line": [
              "8 RUE DE LA SANTE"
            ],
            "city": "",
            "state": "",
            "postalCode": "75001",
            "country": "UNK"
          }
        ]
      },
      "request": {
        "method": "POST",
        "url": "Practitioner"
      }
    },
    {
      "fullUrl": "http://example.org/fhir/PractitionerRole/7b825772-4028-45a1-a8e9-d3b88d663d9d",
      "resource": {
        "resourceType": "PractitionerRole",
        "id": "7b825772-4028-45a1-a8e9-d3b88d663d9d",
        "practitioner": {
          "reference": "Practitioner/acc35814-acb8-446d-974c-2fb345926689"
        },
        "code": [
          {
            "coding": [
              {
                "system": "http://terminology.hl7.org/CodeSystem/v2-0443",
                "code": "ODRP"
              }
            ]
          }
        ],
        "active": true,
        "period": {},
        "subject": {
          "reference": "http://example.org/fhir/Patient/15705d71-31ad-4002-8fba-f98e8d35a639"
        }
      },
      "request": {
        "method": "POST",
        "url": "PractitionerRole"
      }
    }
  ]
}