{
  "resourceType": "Bundle",
  "type": "transaction",
  "id": "6d1a6ca1-1d71-48f7-93f3-4695515bffaa",
  "timestamp": "2025-04-27T18:36:18.961Z",
  "meta": {
    "profile": [
      "https://interop.esante.gouv.fr/ig/fhir/hl7/StructureDefinition/hl7-bundle"
    ],
    "security": [
      {
        "system": "https://mos.esante.gouv.fr/NOS/TRE_R283-Confidentiality/FHIR/TRE-R283-Confidentiality",
        "code": "N",
        "display": "Normal"
      }
    ],
    "tag": [
      {
        "system": "https://mos.esante.gouv.fr/NOS/TRE_R287-FormatCode/FHIR/TRE-R287-FormatCode",
        "code": "urn:ans:ci-sis:hl7:v2.5",
        "display": "HL7 v2.5 converti en FHIR R4 (ANS)"
      }
    ]
  },
  "entry": [
    {
      "fullUrl": "https://fhir.org/FHIRHub/Patient/6f49e9dd-f743-4a5f-acf6-59ac531af7d1",
      "resource": {
        "resourceType": "Patient",
        "id": "6f49e9dd-f743-4a5f-acf6-59ac531af7d1",
        "identifier": [
          {
            "system": "urn:HOPITAL",
            "value": "123456789",
            "type": {
              "coding": [
                {
                  "system": "http://terminology.hl7.org/CodeSystem/v2-0203",
                  "code": "PI",
                  "display": "Patient internal identifier"
                }
              ]
            },
            "assigner": {
              "display": "HOPITAL"
            }
          }
        ],
        "name": [
          {
            "family": "MARTIN",
            "given": [
              "JEAN",
              "ANDRÉ"
            ],
            "prefix": [
              "M."
            ]
          }
        ],
        "birthDate": "1980-01-01",
        "gender": "male",
        "address": [
          {
            "line": [
              "2 RUE DE LA PAIX"
            ],
            "city": "PARIS",
            "postalCode": "75001",
            "country": "FRA",
            "use": "home",
            "extension": [
              {
                "url": "https://interop.esante.gouv.fr/ig/fhir/annuaire/StructureDefinition/commune-cog-code",
                "valueString": "75000"
              }
            ]
          }
        ],
        "telecom": [
          {
            "system": "phone",
            "value": "+33 1 23 45 67 89",
            "use": "home",
            "extension": [
              {
                "url": "http://hl7.org/fhir/StructureDefinition/rendering-style",
                "valueString": "+33 n nn nn nn nn"
              }
            ]
          }
        ]
      },
      "request": {
        "method": "POST",
        "url": "Patient"
      }
    },
    {
      "fullUrl": "https://fhir.org/FHIRHub/Person/8777f61e-5392-4f0d-9e6f-881b8f6c6145",
      "resource": {
        "resourceType": "Person",
        "id": "8777f61e-5392-4f0d-9e6f-881b8f6c6145",
        "name": [
          {
            "family": "MARTIN",
            "given": [
              "JEAN",
              "ANDRÉ"
            ],
            "prefix": [
              "M."
            ]
          }
        ],
        "gender": "male",
        "birthDate": "1980-01-01",
        "telecom": [
          {
            "system": "phone",
            "value": "+33 1 23 45 67 89",
            "use": "home",
            "extension": [
              {
                "url": "http://hl7.org/fhir/StructureDefinition/rendering-style",
                "valueString": "+33 n nn nn nn nn"
              }
            ]
          }
        ],
        "address": [
          {
            "line": [
              "2 RUE DE LA PAIX"
            ],
            "city": "PARIS",
            "postalCode": "75001",
            "country": "FRA",
            "use": "home",
            "extension": [
              {
                "url": "https://interop.esante.gouv.fr/ig/fhir/annuaire/StructureDefinition/commune-cog-code",
                "valueString": "75000"
              }
            ]
          }
        ],
        "link": [
          {
            "target": {
              "reference": "https://fhir.org/FHIRHub/Patient/6f49e9dd-f743-4a5f-acf6-59ac531af7d1"
            }
          }
        ]
      },
      "request": {
        "method": "POST",
        "url": "Person"
      }
    },
    {
      "fullUrl": "https://fhir.org/FHIRHub/Practitioner/2425f0ef-cd42-432c-9cd2-a4b6c7692233",
      "resource": {
        "resourceType": "Practitioner",
        "id": "2425f0ef-cd42-432c-9cd2-a4b6c7692233",
        "identifier": [
          {
            "system": "http://example.org/fhir/sid/provider-id",
            "value": "456789"
          }
        ],
        "name": [
          {
            "family": "MARTIN",
            "given": [
              "SOPHIE"
            ]
          }
        ]
      },
      "request": {
        "method": "POST",
        "url": "Practitioner"
      }
    },
    {
      "fullUrl": "https://fhir.org/FHIRHub/Encounter/f0349c26-e164-4b5b-abaa-af72c1664228",
      "resource": {
        "resourceType": "Encounter",
        "id": "f0349c26-e164-4b5b-abaa-af72c1664228",
        "status": "finished",
        "class": {
          "system": "http://terminology.hl7.org/CodeSystem/v3-ActCode",
          "code": "I",
          "display": "Inpatient"
        },
        "subject": {
          "reference": "https://fhir.org/FHIRHub/Patient/6f49e9dd-f743-4a5f-acf6-59ac531af7d1"
        },
        "period": {
          "end": "2023-04-27T15:32:03+00:00"
        },
        "location": [
          {
            "location": {
              "display": "CHIRURGIE^101^1"
            }
          }
        ],
        "participant": [
          {
            "individual": {
              "reference": "https://fhir.org/FHIRHub/Practitioner/2425f0ef-cd42-432c-9cd2-a4b6c7692233"
            }
          }
        ]
      },
      "request": {
        "method": "POST",
        "url": "Encounter"
      }
    },
    {
      "fullUrl": "https://fhir.org/FHIRHub/Observation/5abac10a-130e-4630-a850-2c5eb8cad221",
      "resource": {
        "resourceType": "Observation",
        "id": "5abac10a-130e-4630-a850-2c5eb8cad221",
        "status": "final",
        "code": {
          "coding": [
            {
              "system": "http://loinc.org",
              "code": "8480-6",
              "display": "Pression artérielle systolique"
            }
          ]
        },
        "subject": {
          "reference": "https://fhir.org/FHIRHub/Patient/6f49e9dd-f743-4a5f-acf6-59ac531af7d1"
        },
        "encounter": {
          "reference": "https://fhir.org/FHIRHub/Encounter/f0349c26-e164-4b5b-abaa-af72c1664228"
        },
        "valueQuantity": {
          "value": 120,
          "unit": "mm[Hg]",
          "system": "http://unitsofmeasure.org",
          "code": "mm[Hg]"
        },
        "interpretation": [
          {
            "coding": [
              {
                "system": "http://terminology.hl7.org/CodeSystem/v3-ObservationInterpretation",
                "code": "N",
                "display": "N"
              }
            ]
          }
        ]
      },
      "request": {
        "method": "POST",
        "url": "Observation"
      }
    },
    {
      "fullUrl": "https://fhir.org/FHIRHub/Observation/f13fb728-611e-44a3-91a7-c960f9a8d03a",
      "resource": {
        "resourceType": "Observation",
        "id": "f13fb728-611e-44a3-91a7-c960f9a8d03a",
        "status": "final",
        "code": {
          "coding": [
            {
              "system": "http://loinc.org",
              "code": "8462-4",
              "display": "Pression artérielle diastolique"
            }
          ]
        },
        "subject": {
          "reference": "https://fhir.org/FHIRHub/Patient/6f49e9dd-f743-4a5f-acf6-59ac531af7d1"
        },
        "encounter": {
          "reference": "https://fhir.org/FHIRHub/Encounter/f0349c26-e164-4b5b-abaa-af72c1664228"
        },
        "valueQuantity": {
          "value": 80,
          "unit": "mm[Hg]",
          "system": "http://unitsofmeasure.org",
          "code": "mm[Hg]"
        },
        "interpretation": [
          {
            "coding": [
              {
                "system": "http://terminology.hl7.org/CodeSystem/v3-ObservationInterpretation",
                "code": "N",
                "display": "N"
              }
            ]
          }
        ]
      },
      "request": {
        "method": "POST",
        "url": "Observation"
      }
    },
    {
      "fullUrl": "https://fhir.org/FHIRHub/Observation/df726e62-178d-4ca3-a415-c39ff9d19ba2",
      "resource": {
        "resourceType": "Observation",
        "id": "df726e62-178d-4ca3-a415-c39ff9d19ba2",
        "status": "final",
        "code": {
          "coding": [
            {
              "system": "http://loinc.org",
              "code": "8310-5",
              "display": "Température corporelle"
            }
          ]
        },
        "subject": {
          "reference": "https://fhir.org/FHIRHub/Patient/6f49e9dd-f743-4a5f-acf6-59ac531af7d1"
        },
        "encounter": {
          "reference": "https://fhir.org/FHIRHub/Encounter/f0349c26-e164-4b5b-abaa-af72c1664228"
        },
        "valueQuantity": {
          "value": 37.1,
          "unit": "Cel",
          "system": "http://unitsofmeasure.org",
          "code": "Cel"
        },
        "interpretation": [
          {
            "coding": [
              {
                "system": "http://terminology.hl7.org/CodeSystem/v3-ObservationInterpretation",
                "code": "N",
                "display": "N"
              }
            ]
          }
        ]
      },
      "request": {
        "method": "POST",
        "url": "Observation"
      }
    },
    {
      "fullUrl": "https://fhir.org/FHIRHub/Organization/fa336a67-956e-4674-bfd0-9bc65c30a3d1",
      "resource": {
        "resourceType": "Organization",
        "id": "fa336a67-956e-4674-bfd0-9bc65c30a3d1",
        "identifier": [
          {
            "system": "http://terminology.hl7.org/CodeSystem/v3-HL7",
            "value": "SENDING_FACILITY"
          }
        ],
        "name": "SENDING_FACILITY"
      },
      "request": {
        "method": "POST",
        "url": "Organization"
      }
    }
  ]
}