{
  "resourceType": "Bundle",
  "type": "transaction",
  "id": "7150bc65-f61d-40eb-9d77-10b1377d0782",
  "timestamp": "2025-04-28T11:03:48.442Z",
  "meta": {
    "profile": [
      "https://interop.esante.gouv.fr/ig/fhir/hl7/StructureDefinition/hl7-bundle"
    ],
    "security": [
      {
        "system": "https://mos.esante.gouv.fr/NOS/TRE_R283-Confidentiality/FHIR/TRE-R283-Confidentiality",
        "code": "N",
        "display": "Normal"
      }
    ],
    "tag": [
      {
        "system": "https://mos.esante.gouv.fr/NOS/TRE_R287-FormatCode/FHIR/TRE-R287-FormatCode",
        "code": "urn:ans:ci-sis:hl7:v2.5",
        "display": "HL7 v2.5 converti en FHIR R4 (ANS)"
      }
    ]
  },
  "entry": [
    {
      "fullUrl": "https://fhir.org/FHIRHub/Patient/6a1e1a44-8502-47be-865f-a94c7f83d698",
      "resource": {
        "resourceType": "Patient",
        "id": "6a1e1a44-8502-47be-865f-a94c7f83d698",
        "identifier": [
          {
            "system": "urn:CEGI",
            "value": "123456",
            "type": {
              "coding": [
                {
                  "system": "http://terminology.hl7.org/CodeSystem/v2-0203",
                  "code": "PI",
                  "display": "Patient internal identifier"
                }
              ]
            },
            "assigner": {
              "display": "CEGI"
            }
          },
          {
            "system": "urn:oid:1.2.250.1.213.1.4.8",
            "value": "987654321654321",
            "type": {
              "coding": [
                {
                  "system": "http://terminology.hl7.org/CodeSystem/v2-0203",
                  "code": "INS",
                  "display": "INS"
                }
              ]
            },
            "extension": [
              {
                "url": "https://apifhir.annuaire.sante.fr/ws-sync/exposed/structuredefinition/INS-NIR-Verifie",
                "valueBoolean": true
              },
              {
                "url": "https://apifhir.annuaire.sante.fr/ws-sync/exposed/structuredefinition/INS-Source",
                "valueCode": "RECUPERE"
              },
              {
                "url": "https://apifhir.annuaire.sante.fr/ws-sync/exposed/structuredefinition/INS-DateConsultation",
                "valueDateTime": "2025-04-28"
              }
            ],
            "assigner": {
              "display": "ASIP-SANTE-INS-NIR"
            }
          },
          {
            "system": "urn:CEGI",
            "value": "987654321",
            "type": {
              "coding": [
                {
                  "system": "http://terminology.hl7.org/CodeSystem/v2-0203",
                  "code": "PIP",
                  "display": "PIP"
                }
              ]
            },
            "assigner": {
              "display": "CEGI"
            }
          }
        ],
        "name": [
          {
            "family": "DURAND",
            "use": "official",
            "prefix": [
              "MME"
            ]
          }
        ],
        "birthDate": "1948-09-09",
        "gender": "female",
        "address": [
          {
            "line": [
              "7 RUE DE LA MAIRIE"
            ],
            "city": "PARIS",
            "postalCode": "75001",
            "country": "FRA",
            "use": "home",
            "extension": [
              {
                "url": "https://interop.esante.gouv.fr/ig/fhir/annuaire/StructureDefinition/commune-cog-code",
                "valueString": "60000"
              }
            ]
          }
        ]
      },
      "request": {
        "method": "POST",
        "url": "Patient"
      }
    },
    {
      "fullUrl": "https://fhir.org/FHIRHub/Person/309b56ff-13a9-477d-b971-0405be597177",
      "resource": {
        "resourceType": "Person",
        "id": "309b56ff-13a9-477d-b971-0405be597177",
        "name": [
          {
            "family": "DURAND",
            "use": "official",
            "prefix": [
              "MME"
            ]
          }
        ],
        "gender": "female",
        "birthDate": "1948-09-09",
        "address": [
          {
            "line": [
              "7 RUE DE LA MAIRIE"
            ],
            "city": "PARIS",
            "postalCode": "75001",
            "country": "FRA",
            "use": "home",
            "extension": [
              {
                "url": "https://interop.esante.gouv.fr/ig/fhir/annuaire/StructureDefinition/commune-cog-code",
                "valueString": "60000"
              }
            ]
          }
        ],
        "link": [
          {
            "target": {
              "reference": "https://fhir.org/FHIRHub/Patient/6a1e1a44-8502-47be-865f-a94c7f83d698"
            }
          }
        ]
      },
      "request": {
        "method": "POST",
        "url": "Person"
      }
    },
    {
      "fullUrl": "https://fhir.org/FHIRHub/Practitioner/4d49f751-3b20-483e-9c7b-5d73f99a8850",
      "resource": {
        "resourceType": "Practitioner",
        "id": "4d49f751-3b20-483e-9c7b-5d73f99a8850",
        "identifier": [
          {
            "system": "http://example.org/fhir/sid/provider-id",
            "value": "123456789"
          }
        ],
        "name": [
          {
            "family": "DUBOIS",
            "given": [
              "MARIE"
            ]
          }
        ]
      },
      "request": {
        "method": "POST",
        "url": "Practitioner"
      }
    },
    {
      "fullUrl": "https://fhir.org/FHIRHub/Encounter/193a938d-ef7d-4500-b82b-f43cd9d3c8a3",
      "resource": {
        "resourceType": "Encounter",
        "id": "193a938d-ef7d-4500-b82b-f43cd9d3c8a3",
        "status": "finished",
        "class": {
          "system": "http://terminology.hl7.org/CodeSystem/v3-ActCode",
          "code": "I",
          "display": "Inpatient"
        },
        "subject": {
          "reference": "https://fhir.org/FHIRHub/Patient/6a1e1a44-8502-47be-865f-a94c7f83d698"
        },
        "period": {
          "start": null
        },
        "location": [
          {
            "location": {
              "display": "^^^HOPITAL SAINT LOUIS&123456789&M"
            }
          }
        ],
        "participant": [
          {
            "individual": {
              "reference": "https://fhir.org/FHIRHub/Practitioner/4d49f751-3b20-483e-9c7b-5d73f99a8850"
            }
          }
        ]
      },
      "request": {
        "method": "POST",
        "url": "Encounter"
      }
    },
    {
      "fullUrl": "https://fhir.org/FHIRHub/Organization/85407eb2-3965-40aa-b659-ae487f64f0f0",
      "resource": {
        "resourceType": "Organization",
        "id": "85407eb2-3965-40aa-b659-ae487f64f0f0",
        "identifier": [
          {
            "system": "http://terminology.hl7.org/CodeSystem/v3-HL7",
            "value": "CEGI"
          }
        ],
        "name": "CEGI"
      },
      "request": {
        "method": "POST",
        "url": "Organization"
      }
    },
    {
      "fullUrl": "https://fhir.org/FHIRHub/RelatedPerson/0df0dfe7-41d7-4c6a-ac36-5f40f1caea9e",
      "resource": {
        "resourceType": "RelatedPerson",
        "id": "0df0dfe7-41d7-4c6a-ac36-5f40f1caea9e",
        "active": true,
        "patient": {
          "reference": "https://fhir.org/FHIRHub/Patient/6a1e1a44-8502-47be-865f-a94c7f83d698"
        },
        "relationship": [
          {
            "coding": [
              {
                "system": "http://terminology.hl7.org/CodeSystem/v3-RoleCode",
                "code": "ONESELF",
                "display": "UNK"
              }
            ]
          }
        ],
        "name": [
          {
            "family": "DURAND",
            "given": [
              "PIERRE"
            ]
          }
        ]
      },
      "request": {
        "method": "POST",
        "url": "RelatedPerson"
      }
    },
    {
      "fullUrl": "https://fhir.org/FHIRHub/Practitioner/47f8d14a-25f0-4a83-8068-02f7e6769565",
      "resource": {
        "resourceType": "Practitioner",
        "id": "47f8d14a-25f0-4a83-8068-02f7e6769565",
        "identifier": [
          {
            "system": "urn:oid:1.2.250.1.71.4.2.1",
            "value": "987654321",
            "type": {
              "coding": [
                {
                  "system": "http://terminology.hl7.org/CodeSystem/v2-0203",
                  "code": "ASIP-SANTE-PS",
                  "display": "Provider Number"
                }
              ]
            }
          }
        ],
        "name": [
          {
            "family": "MARTIN",
            "given": [
              "JEAN"
            ]
          }
        ],
        "active": true
      },
      "request": {
        "method": "POST",
        "url": "Practitioner"
      }
    },
    {
      "fullUrl": "https://fhir.org/FHIRHub/PractitionerRole/a362ce4a-ba5f-4b23-a20e-3d04c4f1994e",
      "resource": {
        "resourceType": "PractitionerRole",
        "id": "a362ce4a-ba5f-4b23-a20e-3d04c4f1994e",
        "practitioner": {
          "reference": "Practitioner/47f8d14a-25f0-4a83-8068-02f7e6769565"
        },
        "code": [
          {
            "coding": [
              {
                "system": "https://mos.esante.gouv.fr/NOS/TRE_A01-CadreExercice/FHIR/TRE-A01-CadreExercice",
                "code": "S",
                "display": "Médecin"
              },
              {
                "system": "http://terminology.hl7.org/CodeSystem/v2-0443",
                "code": "ODRP",
                "display": "Unknown Role"
              }
            ]
          }
        ],
        "active": true,
        "period": {},
        "subject": {
          "reference": "https://fhir.org/FHIRHub/Patient/6a1e1a44-8502-47be-865f-a94c7f83d698"
        }
      },
      "request": {
        "method": "POST",
        "url": "PractitionerRole"
      }
    },
    {
      "fullUrl": "https://fhir.org/FHIRHub/Provenance/4a764ccd-103b-4418-8d2e-c8772e4d6018",
      "resource": {
        "resourceType": "Provenance",
        "id": "4a764ccd-103b-4418-8d2e-c8772e4d6018",
        "recorded": "2024-03-26T00:00:00+00:00",
        "activity": {
          "coding": [
            {
              "system": "http://terminology.hl7.org/CodeSystem/v3-DataOperation",
              "code": "INSERT",
              "display": "Create"
            }
          ]
        },
        "agent": [
          {
            "type": {
              "coding": [
                {
                  "system": "http://terminology.hl7.org/CodeSystem/provenance-participant-type",
                  "code": "author",
                  "display": "Author"
                }
              ]
            },
            "who": {
              "reference": "https://fhir.org/FHIRHub/Patient/6a1e1a44-8502-47be-865f-a94c7f83d698"
            }
          }
        ],
        "extension": [
          {
            "url": "https://interop.esante.gouv.fr/ig/fhir/extensions/StructureDefinition/event-indicator",
            "valueString": "N"
          },
          {
            "url": "https://interop.esante.gouv.fr/ig/fhir/extensions/StructureDefinition/current-location",
            "valueString": "\"\"^^^^^^UF^^^\"\""
          },
          {
            "url": "https://interop.esante.gouv.fr/ig/fhir/extensions/StructureDefinition/custom-data",
            "valueString": "|M "
          }
        ]
      },
      "request": {
        "method": "POST",
        "url": "Provenance"
      }
    }
  ]
}