{
  "resourceType": "Bundle",
  "type": "transaction",
  "id": "5802cf3e-da46-48d1-aa6d-3c5d52a1583e",
  "timestamp": "2025-04-28T11:00:53.810Z",
  "meta": {
    "profile": [
      "https://interop.esante.gouv.fr/ig/fhir/hl7/StructureDefinition/hl7-bundle"
    ],
    "security": [
      {
        "system": "https://mos.esante.gouv.fr/NOS/TRE_R283-Confidentiality/FHIR/TRE-R283-Confidentiality",
        "code": "N",
        "display": "Normal"
      }
    ],
    "tag": [
      {
        "system": "https://mos.esante.gouv.fr/NOS/TRE_R287-FormatCode/FHIR/TRE-R287-FormatCode",
        "code": "urn:ans:ci-sis:hl7:v2.5",
        "display": "HL7 v2.5 converti en FHIR R4 (ANS)"
      }
    ]
  },
  "entry": [
    {
      "fullUrl": "https://fhir.org/FHIRHub/Patient/e128b8f8-f21c-428a-b5a2-8ed6914e12e1",
      "resource": {
        "resourceType": "Patient",
        "id": "e128b8f8-f21c-428a-b5a2-8ed6914e12e1",
        "identifier": [
          {
            "system": "urn:CEGI",
            "value": "442777",
            "type": {
              "coding": [
                {
                  "system": "http://terminology.hl7.org/CodeSystem/v2-0203",
                  "code": "PI",
                  "display": "Patient internal identifier"
                }
              ]
            },
            "assigner": {
              "display": "CEGI"
            }
          },
          {
            "system": "urn:oid:1.2.250.1.213.1.4.8",
            "value": "248098060602525",
            "type": {
              "coding": [
                {
                  "system": "http://terminology.hl7.org/CodeSystem/v2-0203",
                  "code": "INS",
                  "display": "INS"
                }
              ]
            },
            "extension": [
              {
                "url": "https://apifhir.annuaire.sante.fr/ws-sync/exposed/structuredefinition/INS-NIR-Verifie",
                "valueBoolean": true
              },
              {
                "url": "https://apifhir.annuaire.sante.fr/ws-sync/exposed/structuredefinition/INS-Source",
                "valueCode": "RECUPERE"
              },
              {
                "url": "https://apifhir.annuaire.sante.fr/ws-sync/exposed/structuredefinition/INS-DateConsultation",
                "valueDateTime": "2025-04-28"
              }
            ],
            "assigner": {
              "display": "ASIP-SANTE-INS-NIR"
            }
          },
          {
            "system": "urn:CEGI",
            "value": "1000345108",
            "type": {
              "coding": [
                {
                  "system": "http://terminology.hl7.org/CodeSystem/v2-0203",
                  "code": "PIP",
                  "display": "PIP"
                }
              ]
            },
            "assigner": {
              "display": "CEGI"
            }
          }
        ],
        "name": [
          {
            "family": "SECLET",
            "use": "official",
            "prefix": [
              "MME"
            ]
          }
        ],
        "birthDate": "1948-09-09",
        "gender": "female",
        "address": [
          {
            "line": [
              "7 RUE DU BOUJONNIER"
            ],
            "city": "FORMERIE",
            "postalCode": "60220",
            "country": "FRA",
            "use": "home",
            "extension": [
              {
                "url": "https://interop.esante.gouv.fr/ig/fhir/annuaire/StructureDefinition/commune-cog-code",
                "valueString": "60000"
              }
            ]
          }
        ]
      },
      "request": {
        "method": "POST",
        "url": "Patient"
      }
    },
    {
      "fullUrl": "https://fhir.org/FHIRHub/Person/e4144cf9-235b-4c46-8d99-1f2700023dbe",
      "resource": {
        "resourceType": "Person",
        "id": "e4144cf9-235b-4c46-8d99-1f2700023dbe",
        "name": [
          {
            "family": "SECLET",
            "use": "official",
            "prefix": [
              "MME"
            ]
          }
        ],
        "gender": "female",
        "birthDate": "1948-09-09",
        "address": [
          {
            "line": [
              "7 RUE DU BOUJONNIER"
            ],
            "city": "FORMERIE",
            "postalCode": "60220",
            "country": "FRA",
            "use": "home",
            "extension": [
              {
                "url": "https://interop.esante.gouv.fr/ig/fhir/annuaire/StructureDefinition/commune-cog-code",
                "valueString": "60000"
              }
            ]
          }
        ],
        "link": [
          {
            "target": {
              "reference": "https://fhir.org/FHIRHub/Patient/e128b8f8-f21c-428a-b5a2-8ed6914e12e1"
            }
          }
        ]
      },
      "request": {
        "method": "POST",
        "url": "Person"
      }
    },
    {
      "fullUrl": "https://fhir.org/FHIRHub/Practitioner/13ff95f3-b97f-4ecc-a440-e31b731bdf92",
      "resource": {
        "resourceType": "Practitioner",
        "id": "13ff95f3-b97f-4ecc-a440-e31b731bdf92",
        "identifier": [
          {
            "system": "http://example.org/fhir/sid/provider-id",
            "value": "10001850758"
          }
        ],
        "name": [
          {
            "family": "BARTOLI",
            "given": [
              "PAULINE"
            ]
          }
        ]
      },
      "request": {
        "method": "POST",
        "url": "Practitioner"
      }
    },
    {
      "fullUrl": "https://fhir.org/FHIRHub/Encounter/0d9bfed2-0e82-4531-adbb-6f532c2491da",
      "resource": {
        "resourceType": "Encounter",
        "id": "0d9bfed2-0e82-4531-adbb-6f532c2491da",
        "status": "finished",
        "class": {
          "system": "http://terminology.hl7.org/CodeSystem/v3-ActCode",
          "code": "I",
          "display": "Inpatient"
        },
        "subject": {
          "reference": "https://fhir.org/FHIRHub/Patient/e128b8f8-f21c-428a-b5a2-8ed6914e12e1"
        },
        "period": {
          "start": null
        },
        "location": [
          {
            "location": {
              "display": "^^^CLINIQUE VICTOR PAUCHET&800009920&M"
            }
          }
        ],
        "participant": [
          {
            "individual": {
              "reference": "https://fhir.org/FHIRHub/Practitioner/13ff95f3-b97f-4ecc-a440-e31b731bdf92"
            }
          }
        ]
      },
      "request": {
        "method": "POST",
        "url": "Encounter"
      }
    },
    {
      "fullUrl": "https://fhir.org/FHIRHub/Organization/c4445160-6974-4732-a708-8076fcb2f271",
      "resource": {
        "resourceType": "Organization",
        "id": "c4445160-6974-4732-a708-8076fcb2f271",
        "identifier": [
          {
            "system": "http://terminology.hl7.org/CodeSystem/v3-HL7",
            "value": "CEGI"
          }
        ],
        "name": "CEGI"
      },
      "request": {
        "method": "POST",
        "url": "Organization"
      }
    },
    {
      "fullUrl": "https://fhir.org/FHIRHub/RelatedPerson/909069f2-aeae-4028-bb1d-69ac00e6761c",
      "resource": {
        "resourceType": "RelatedPerson",
        "id": "909069f2-aeae-4028-bb1d-69ac00e6761c",
        "active": true,
        "patient": {
          "reference": "https://fhir.org/FHIRHub/Patient/e128b8f8-f21c-428a-b5a2-8ed6914e12e1"
        },
        "relationship": [
          {
            "coding": [
              {
                "system": "http://terminology.hl7.org/CodeSystem/v3-RoleCode",
                "code": "ONESELF",
                "display": "UNK"
              }
            ]
          }
        ],
        "name": [
          {
            "family": "REMY",
            "given": [
              "AUDREY"
            ]
          }
        ]
      },
      "request": {
        "method": "POST",
        "url": "RelatedPerson"
      }
    },
    {
      "fullUrl": "https://fhir.org/FHIRHub/Practitioner/0c384423-b4c2-4eb9-8106-98d0fbd5f4f7",
      "resource": {
        "resourceType": "Practitioner",
        "id": "0c384423-b4c2-4eb9-8106-98d0fbd5f4f7",
        "identifier": [
          {
            "system": "urn:oid:1.2.250.1.71.4.2.1",
            "value": "10100710366",
            "type": {
              "coding": [
                {
                  "system": "http://terminology.hl7.org/CodeSystem/v2-0203",
                  "code": "ASIP-SANTE-PS",
                  "display": "Provider Number"
                }
              ]
            }
          }
        ],
        "name": [
          {
            "family": "LEFRANCOIS",
            "given": [
              "PASCAL"
            ]
          }
        ],
        "active": true
      },
      "request": {
        "method": "POST",
        "url": "Practitioner"
      }
    },
    {
      "fullUrl": "https://fhir.org/FHIRHub/PractitionerRole/53edf607-0ee0-4a19-89c5-62ca22c3433d",
      "resource": {
        "resourceType": "PractitionerRole",
        "id": "53edf607-0ee0-4a19-89c5-62ca22c3433d",
        "practitioner": {
          "reference": "Practitioner/0c384423-b4c2-4eb9-8106-98d0fbd5f4f7"
        },
        "code": [
          {
            "coding": [
              {
                "system": "https://mos.esante.gouv.fr/NOS/TRE_A01-CadreExercice/FHIR/TRE-A01-CadreExercice",
                "code": "S",
                "display": "Médecin"
              },
              {
                "system": "http://terminology.hl7.org/CodeSystem/v2-0443",
                "code": "ODRP",
                "display": "Unknown Role"
              }
            ]
          }
        ],
        "active": true,
        "period": {},
        "subject": {
          "reference": "https://fhir.org/FHIRHub/Patient/e128b8f8-f21c-428a-b5a2-8ed6914e12e1"
        }
      },
      "request": {
        "method": "POST",
        "url": "PractitionerRole"
      }
    },
    {
      "fullUrl": "https://fhir.org/FHIRHub/Provenance/3acafd8a-36c9-4397-a8c6-c10cd94aefac",
      "resource": {
        "resourceType": "Provenance",
        "id": "3acafd8a-36c9-4397-a8c6-c10cd94aefac",
        "recorded": "2024-03-26T00:00:00+00:00",
        "activity": {
          "coding": [
            {
              "system": "http://terminology.hl7.org/CodeSystem/v3-DataOperation",
              "code": "INSERT",
              "display": "Create"
            }
          ]
        },
        "agent": [
          {
            "type": {
              "coding": [
                {
                  "system": "http://terminology.hl7.org/CodeSystem/provenance-participant-type",
                  "code": "author",
                  "display": "Author"
                }
              ]
            },
            "who": {
              "reference": "https://fhir.org/FHIRHub/Patient/e128b8f8-f21c-428a-b5a2-8ed6914e12e1"
            }
          }
        ],
        "extension": [
          {
            "url": "https://interop.esante.gouv.fr/ig/fhir/extensions/StructureDefinition/event-indicator",
            "valueString": "N"
          },
          {
            "url": "https://interop.esante.gouv.fr/ig/fhir/extensions/StructureDefinition/current-location",
            "valueString": "\"\"^^^^^^UF^^^\"\""
          },
          {
            "url": "https://interop.esante.gouv.fr/ig/fhir/extensions/StructureDefinition/custom-data",
            "valueString": "|M "
          }
        ]
      },
      "request": {
        "method": "POST",
        "url": "Provenance"
      }
    }
  ]
}