{
  "resourceType": "Bundle",
  "type": "transaction",
  "id": "2efbb04e-c4ce-41b3-ab47-0d1dbca8d0a8",
  "timestamp": "2025-04-28T11:05:42.268Z",
  "meta": {
    "profile": [
      "https://interop.esante.gouv.fr/ig/fhir/hl7/StructureDefinition/hl7-bundle"
    ],
    "security": [
      {
        "system": "https://mos.esante.gouv.fr/NOS/TRE_R283-Confidentiality/FHIR/TRE-R283-Confidentiality",
        "code": "N",
        "display": "Normal"
      }
    ],
    "tag": [
      {
        "system": "https://mos.esante.gouv.fr/NOS/TRE_R287-FormatCode/FHIR/TRE-R287-FormatCode",
        "code": "urn:ans:ci-sis:hl7:v2.5",
        "display": "HL7 v2.5 converti en FHIR R4 (ANS)"
      }
    ]
  },
  "entry": [
    {
      "fullUrl": "https://fhir.org/FHIRHub/Patient/b920a67b-42f5-43ae-9147-73278d8b7105",
      "resource": {
        "resourceType": "Patient",
        "id": "b920a67b-42f5-43ae-9147-73278d8b7105",
        "identifier": [
          {
            "system": "urn:CEGI",
            "value": "123456",
            "type": {
              "coding": [
                {
                  "system": "http://terminology.hl7.org/CodeSystem/v2-0203",
                  "code": "PI",
                  "display": "Patient internal identifier"
                }
              ]
            },
            "assigner": {
              "display": "CEGI"
            }
          },
          {
            "system": "urn:oid:1.2.250.1.213.1.4.8",
            "value": "987654321654321",
            "type": {
              "coding": [
                {
                  "system": "http://terminology.hl7.org/CodeSystem/v2-0203",
                  "code": "INS",
                  "display": "INS"
                }
              ]
            },
            "extension": [
              {
                "url": "https://apifhir.annuaire.sante.fr/ws-sync/exposed/structuredefinition/INS-NIR-Verifie",
                "valueBoolean": true
              },
              {
                "url": "https://apifhir.annuaire.sante.fr/ws-sync/exposed/structuredefinition/INS-Source",
                "valueCode": "RECUPERE"
              },
              {
                "url": "https://apifhir.annuaire.sante.fr/ws-sync/exposed/structuredefinition/INS-DateConsultation",
                "valueDateTime": "2025-04-28"
              }
            ],
            "assigner": {
              "display": "ASIP-SANTE-INS-NIR"
            }
          },
          {
            "system": "urn:CEGI",
            "value": "987654321",
            "type": {
              "coding": [
                {
                  "system": "http://terminology.hl7.org/CodeSystem/v2-0203",
                  "code": "PIP",
                  "display": "PIP"
                }
              ]
            },
            "assigner": {
              "display": "CEGI"
            }
          }
        ],
        "name": [
          {
            "family": "DURAND",
            "use": "official",
            "prefix": [
              "MME"
            ]
          }
        ],
        "birthDate": "1948-09-09",
        "gender": "female",
        "address": [
          {
            "line": [
              "7 RUE DE LA MAIRIE"
            ],
            "city": "PARIS",
            "postalCode": "75001",
            "country": "FRA",
            "use": "home",
            "extension": [
              {
                "url": "https://interop.esante.gouv.fr/ig/fhir/annuaire/StructureDefinition/commune-cog-code",
                "valueString": "60000"
              }
            ]
          }
        ]
      },
      "request": {
        "method": "POST",
        "url": "Patient"
      }
    },
    {
      "fullUrl": "https://fhir.org/FHIRHub/Person/221e8801-2fe9-4e10-b78b-eda5318549f4",
      "resource": {
        "resourceType": "Person",
        "id": "221e8801-2fe9-4e10-b78b-eda5318549f4",
        "name": [
          {
            "family": "DURAND",
            "use": "official",
            "prefix": [
              "MME"
            ]
          }
        ],
        "gender": "female",
        "birthDate": "1948-09-09",
        "address": [
          {
            "line": [
              "7 RUE DE LA MAIRIE"
            ],
            "city": "PARIS",
            "postalCode": "75001",
            "country": "FRA",
            "use": "home",
            "extension": [
              {
                "url": "https://interop.esante.gouv.fr/ig/fhir/annuaire/StructureDefinition/commune-cog-code",
                "valueString": "60000"
              }
            ]
          }
        ],
        "link": [
          {
            "target": {
              "reference": "https://fhir.org/FHIRHub/Patient/b920a67b-42f5-43ae-9147-73278d8b7105"
            }
          }
        ]
      },
      "request": {
        "method": "POST",
        "url": "Person"
      }
    },
    {
      "fullUrl": "https://fhir.org/FHIRHub/Practitioner/57340975-2ba0-4296-8dfa-8e27f2266fcd",
      "resource": {
        "resourceType": "Practitioner",
        "id": "57340975-2ba0-4296-8dfa-8e27f2266fcd",
        "identifier": [
          {
            "system": "http://example.org/fhir/sid/provider-id",
            "value": "123456789"
          }
        ],
        "name": [
          {
            "family": "DUBOIS",
            "given": [
              "MARIE"
            ]
          }
        ]
      },
      "request": {
        "method": "POST",
        "url": "Practitioner"
      }
    },
    {
      "fullUrl": "https://fhir.org/FHIRHub/Encounter/987d9430-f28f-4616-b294-5134c553f4dc",
      "resource": {
        "resourceType": "Encounter",
        "id": "987d9430-f28f-4616-b294-5134c553f4dc",
        "status": "finished",
        "class": {
          "system": "http://terminology.hl7.org/CodeSystem/v3-ActCode",
          "code": "I",
          "display": "Inpatient"
        },
        "subject": {
          "reference": "https://fhir.org/FHIRHub/Patient/b920a67b-42f5-43ae-9147-73278d8b7105"
        },
        "period": {
          "start": null
        },
        "location": [
          {
            "location": {
              "display": "^^^HOPITAL SAINT LOUIS&123456789&M"
            }
          }
        ],
        "participant": [
          {
            "individual": {
              "reference": "https://fhir.org/FHIRHub/Practitioner/57340975-2ba0-4296-8dfa-8e27f2266fcd"
            }
          }
        ]
      },
      "request": {
        "method": "POST",
        "url": "Encounter"
      }
    },
    {
      "fullUrl": "https://fhir.org/FHIRHub/Organization/561e3a55-0fdf-4c8d-956f-4e0608861cd5",
      "resource": {
        "resourceType": "Organization",
        "id": "561e3a55-0fdf-4c8d-956f-4e0608861cd5",
        "identifier": [
          {
            "system": "http://terminology.hl7.org/CodeSystem/v3-HL7",
            "value": "CEGI"
          }
        ],
        "name": "CEGI"
      },
      "request": {
        "method": "POST",
        "url": "Organization"
      }
    },
    {
      "fullUrl": "https://fhir.org/FHIRHub/RelatedPerson/5c81a306-a2b5-4d8b-9e5a-82610b5ab8c5",
      "resource": {
        "resourceType": "RelatedPerson",
        "id": "5c81a306-a2b5-4d8b-9e5a-82610b5ab8c5",
        "active": true,
        "patient": {
          "reference": "https://fhir.org/FHIRHub/Patient/b920a67b-42f5-43ae-9147-73278d8b7105"
        },
        "relationship": [
          {
            "coding": [
              {
                "system": "http://terminology.hl7.org/CodeSystem/v3-RoleCode",
                "code": "ONESELF",
                "display": "UNK"
              }
            ]
          }
        ],
        "name": [
          {
            "family": "DURAND",
            "given": [
              "PIERRE"
            ]
          }
        ]
      },
      "request": {
        "method": "POST",
        "url": "RelatedPerson"
      }
    },
    {
      "fullUrl": "https://fhir.org/FHIRHub/Practitioner/3f49eecf-ac02-4032-95af-91453f3876ec",
      "resource": {
        "resourceType": "Practitioner",
        "id": "3f49eecf-ac02-4032-95af-91453f3876ec",
        "identifier": [
          {
            "system": "urn:oid:1.2.250.1.71.4.2.1",
            "value": "987654321",
            "type": {
              "coding": [
                {
                  "system": "http://terminology.hl7.org/CodeSystem/v2-0203",
                  "code": "ASIP-SANTE-PS",
                  "display": "Provider Number"
                }
              ]
            }
          }
        ],
        "name": [
          {
            "family": "MARTIN",
            "given": [
              "JEAN"
            ]
          }
        ],
        "active": true
      },
      "request": {
        "method": "POST",
        "url": "Practitioner"
      }
    },
    {
      "fullUrl": "https://fhir.org/FHIRHub/PractitionerRole/e9b47847-1a5e-45d9-85b5-8e3e2a87c4e8",
      "resource": {
        "resourceType": "PractitionerRole",
        "id": "e9b47847-1a5e-45d9-85b5-8e3e2a87c4e8",
        "practitioner": {
          "reference": "Practitioner/3f49eecf-ac02-4032-95af-91453f3876ec"
        },
        "code": [
          {
            "coding": [
              {
                "system": "https://mos.esante.gouv.fr/NOS/TRE_A01-CadreExercice/FHIR/TRE-A01-CadreExercice",
                "code": "S",
                "display": "Médecin"
              },
              {
                "system": "http://terminology.hl7.org/CodeSystem/v2-0443",
                "code": "ODRP",
                "display": "Unknown Role"
              }
            ]
          }
        ],
        "active": true,
        "period": {},
        "subject": {
          "reference": "https://fhir.org/FHIRHub/Patient/b920a67b-42f5-43ae-9147-73278d8b7105"
        }
      },
      "request": {
        "method": "POST",
        "url": "PractitionerRole"
      }
    },
    {
      "fullUrl": "https://fhir.org/FHIRHub/Provenance/5f729f0e-cebe-4666-a845-63448578b251",
      "resource": {
        "resourceType": "Provenance",
        "id": "5f729f0e-cebe-4666-a845-63448578b251",
        "recorded": "2024-03-26T00:00:00+00:00",
        "activity": {
          "coding": [
            {
              "system": "http://terminology.hl7.org/CodeSystem/v3-DataOperation",
              "code": "INSERT",
              "display": "Create"
            }
          ]
        },
        "agent": [
          {
            "type": {
              "coding": [
                {
                  "system": "http://terminology.hl7.org/CodeSystem/provenance-participant-type",
                  "code": "author",
                  "display": "Author"
                }
              ]
            },
            "who": {
              "reference": "https://fhir.org/FHIRHub/Patient/b920a67b-42f5-43ae-9147-73278d8b7105"
            }
          }
        ],
        "extension": [
          {
            "url": "https://interop.esante.gouv.fr/ig/fhir/extensions/StructureDefinition/event-indicator",
            "valueString": "N"
          },
          {
            "url": "https://interop.esante.gouv.fr/ig/fhir/extensions/StructureDefinition/current-location",
            "valueString": "\"\"^^^^^^UF^^^\"\""
          },
          {
            "url": "https://interop.esante.gouv.fr/ig/fhir/extensions/StructureDefinition/custom-data",
            "valueString": "|M "
          }
        ]
      },
      "request": {
        "method": "POST",
        "url": "Provenance"
      }
    }
  ]
}