{
  "resourceType": "Bundle",
  "type": "transaction",
  "id": "45f5a578-845a-4c74-a7b1-d6a0dc4b302f",
  "timestamp": "2025-04-28T11:04:12.228Z",
  "meta": {
    "profile": [
      "https://interop.esante.gouv.fr/ig/fhir/hl7/StructureDefinition/hl7-bundle"
    ],
    "security": [
      {
        "system": "https://mos.esante.gouv.fr/NOS/TRE_R283-Confidentiality/FHIR/TRE-R283-Confidentiality",
        "code": "N",
        "display": "Normal"
      }
    ],
    "tag": [
      {
        "system": "https://mos.esante.gouv.fr/NOS/TRE_R287-FormatCode/FHIR/TRE-R287-FormatCode",
        "code": "urn:ans:ci-sis:hl7:v2.5",
        "display": "HL7 v2.5 converti en FHIR R4 (ANS)"
      }
    ]
  },
  "entry": [
    {
      "fullUrl": "https://fhir.org/FHIRHub/Patient/c64b9c4d-13ad-4958-84a6-b315e46c3167",
      "resource": {
        "resourceType": "Patient",
        "id": "c64b9c4d-13ad-4958-84a6-b315e46c3167",
        "identifier": [
          {
            "system": "urn:CEGI",
            "value": "123456",
            "type": {
              "coding": [
                {
                  "system": "http://terminology.hl7.org/CodeSystem/v2-0203",
                  "code": "PI",
                  "display": "Patient internal identifier"
                }
              ]
            },
            "assigner": {
              "display": "CEGI"
            }
          },
          {
            "system": "urn:oid:1.2.250.1.213.1.4.8",
            "value": "987654321654321",
            "type": {
              "coding": [
                {
                  "system": "http://terminology.hl7.org/CodeSystem/v2-0203",
                  "code": "INS",
                  "display": "INS"
                }
              ]
            },
            "extension": [
              {
                "url": "https://apifhir.annuaire.sante.fr/ws-sync/exposed/structuredefinition/INS-NIR-Verifie",
                "valueBoolean": true
              },
              {
                "url": "https://apifhir.annuaire.sante.fr/ws-sync/exposed/structuredefinition/INS-Source",
                "valueCode": "RECUPERE"
              },
              {
                "url": "https://apifhir.annuaire.sante.fr/ws-sync/exposed/structuredefinition/INS-DateConsultation",
                "valueDateTime": "2025-04-28"
              }
            ],
            "assigner": {
              "display": "ASIP-SANTE-INS-NIR"
            }
          },
          {
            "system": "urn:CEGI",
            "value": "987654321",
            "type": {
              "coding": [
                {
                  "system": "http://terminology.hl7.org/CodeSystem/v2-0203",
                  "code": "PIP",
                  "display": "PIP"
                }
              ]
            },
            "assigner": {
              "display": "CEGI"
            }
          }
        ],
        "name": [
          {
            "family": "DURAND",
            "use": "official",
            "prefix": [
              "MME"
            ]
          }
        ],
        "birthDate": "1948-09-09",
        "gender": "female",
        "address": [
          {
            "line": [
              "7 RUE DE LA MAIRIE"
            ],
            "city": "PARIS",
            "postalCode": "75001",
            "country": "FRA",
            "use": "home",
            "extension": [
              {
                "url": "https://interop.esante.gouv.fr/ig/fhir/annuaire/StructureDefinition/commune-cog-code",
                "valueString": "60000"
              }
            ]
          }
        ]
      },
      "request": {
        "method": "POST",
        "url": "Patient"
      }
    },
    {
      "fullUrl": "https://fhir.org/FHIRHub/Person/3cb0139a-e8b7-4891-9416-eb8b29250d56",
      "resource": {
        "resourceType": "Person",
        "id": "3cb0139a-e8b7-4891-9416-eb8b29250d56",
        "name": [
          {
            "family": "DURAND",
            "use": "official",
            "prefix": [
              "MME"
            ]
          }
        ],
        "gender": "female",
        "birthDate": "1948-09-09",
        "address": [
          {
            "line": [
              "7 RUE DE LA MAIRIE"
            ],
            "city": "PARIS",
            "postalCode": "75001",
            "country": "FRA",
            "use": "home",
            "extension": [
              {
                "url": "https://interop.esante.gouv.fr/ig/fhir/annuaire/StructureDefinition/commune-cog-code",
                "valueString": "60000"
              }
            ]
          }
        ],
        "link": [
          {
            "target": {
              "reference": "https://fhir.org/FHIRHub/Patient/c64b9c4d-13ad-4958-84a6-b315e46c3167"
            }
          }
        ]
      },
      "request": {
        "method": "POST",
        "url": "Person"
      }
    },
    {
      "fullUrl": "https://fhir.org/FHIRHub/Practitioner/8475b134-4fa3-46e1-963f-0f4b9730531f",
      "resource": {
        "resourceType": "Practitioner",
        "id": "8475b134-4fa3-46e1-963f-0f4b9730531f",
        "identifier": [
          {
            "system": "http://example.org/fhir/sid/provider-id",
            "value": "123456789"
          }
        ],
        "name": [
          {
            "family": "DUBOIS",
            "given": [
              "MARIE"
            ]
          }
        ]
      },
      "request": {
        "method": "POST",
        "url": "Practitioner"
      }
    },
    {
      "fullUrl": "https://fhir.org/FHIRHub/Encounter/7526d4b4-a434-4070-83a7-8c345ae4281c",
      "resource": {
        "resourceType": "Encounter",
        "id": "7526d4b4-a434-4070-83a7-8c345ae4281c",
        "status": "finished",
        "class": {
          "system": "http://terminology.hl7.org/CodeSystem/v3-ActCode",
          "code": "I",
          "display": "Inpatient"
        },
        "subject": {
          "reference": "https://fhir.org/FHIRHub/Patient/c64b9c4d-13ad-4958-84a6-b315e46c3167"
        },
        "period": {
          "start": null
        },
        "location": [
          {
            "location": {
              "display": "^^^HOPITAL SAINT LOUIS&123456789&M"
            }
          }
        ],
        "participant": [
          {
            "individual": {
              "reference": "https://fhir.org/FHIRHub/Practitioner/8475b134-4fa3-46e1-963f-0f4b9730531f"
            }
          }
        ]
      },
      "request": {
        "method": "POST",
        "url": "Encounter"
      }
    },
    {
      "fullUrl": "https://fhir.org/FHIRHub/Organization/a7789a46-dec1-4b5f-b3c8-2ef0e83caa05",
      "resource": {
        "resourceType": "Organization",
        "id": "a7789a46-dec1-4b5f-b3c8-2ef0e83caa05",
        "identifier": [
          {
            "system": "http://terminology.hl7.org/CodeSystem/v3-HL7",
            "value": "CEGI"
          }
        ],
        "name": "CEGI"
      },
      "request": {
        "method": "POST",
        "url": "Organization"
      }
    },
    {
      "fullUrl": "https://fhir.org/FHIRHub/RelatedPerson/255b7359-6522-44fe-933f-004b682e4cd6",
      "resource": {
        "resourceType": "RelatedPerson",
        "id": "255b7359-6522-44fe-933f-004b682e4cd6",
        "active": true,
        "patient": {
          "reference": "https://fhir.org/FHIRHub/Patient/c64b9c4d-13ad-4958-84a6-b315e46c3167"
        },
        "relationship": [
          {
            "coding": [
              {
                "system": "http://terminology.hl7.org/CodeSystem/v3-RoleCode",
                "code": "ONESELF",
                "display": "UNK"
              }
            ]
          }
        ],
        "name": [
          {
            "family": "DURAND",
            "given": [
              "PIERRE"
            ]
          }
        ]
      },
      "request": {
        "method": "POST",
        "url": "RelatedPerson"
      }
    },
    {
      "fullUrl": "https://fhir.org/FHIRHub/Practitioner/7381074c-767a-4e64-9891-ebc0ed63e2f8",
      "resource": {
        "resourceType": "Practitioner",
        "id": "7381074c-767a-4e64-9891-ebc0ed63e2f8",
        "identifier": [
          {
            "system": "urn:oid:1.2.250.1.71.4.2.1",
            "value": "987654321",
            "type": {
              "coding": [
                {
                  "system": "http://terminology.hl7.org/CodeSystem/v2-0203",
                  "code": "ASIP-SANTE-PS",
                  "display": "Provider Number"
                }
              ]
            }
          }
        ],
        "name": [
          {
            "family": "MARTIN",
            "given": [
              "JEAN"
            ]
          }
        ],
        "active": true
      },
      "request": {
        "method": "POST",
        "url": "Practitioner"
      }
    },
    {
      "fullUrl": "https://fhir.org/FHIRHub/PractitionerRole/6f01af83-0b67-4e39-a587-91b358240820",
      "resource": {
        "resourceType": "PractitionerRole",
        "id": "6f01af83-0b67-4e39-a587-91b358240820",
        "practitioner": {
          "reference": "Practitioner/7381074c-767a-4e64-9891-ebc0ed63e2f8"
        },
        "code": [
          {
            "coding": [
              {
                "system": "https://mos.esante.gouv.fr/NOS/TRE_A01-CadreExercice/FHIR/TRE-A01-CadreExercice",
                "code": "S",
                "display": "Médecin"
              },
              {
                "system": "http://terminology.hl7.org/CodeSystem/v2-0443",
                "code": "ODRP",
                "display": "Unknown Role"
              }
            ]
          }
        ],
        "active": true,
        "period": {},
        "subject": {
          "reference": "https://fhir.org/FHIRHub/Patient/c64b9c4d-13ad-4958-84a6-b315e46c3167"
        }
      },
      "request": {
        "method": "POST",
        "url": "PractitionerRole"
      }
    },
    {
      "fullUrl": "https://fhir.org/FHIRHub/Provenance/8f2a14d1-586a-4b80-be6a-1e6ec4dc1ead",
      "resource": {
        "resourceType": "Provenance",
        "id": "8f2a14d1-586a-4b80-be6a-1e6ec4dc1ead",
        "recorded": "2024-03-26T00:00:00+00:00",
        "activity": {
          "coding": [
            {
              "system": "http://terminology.hl7.org/CodeSystem/v3-DataOperation",
              "code": "INSERT",
              "display": "Create"
            }
          ]
        },
        "agent": [
          {
            "type": {
              "coding": [
                {
                  "system": "http://terminology.hl7.org/CodeSystem/provenance-participant-type",
                  "code": "author",
                  "display": "Author"
                }
              ]
            },
            "who": {
              "reference": "https://fhir.org/FHIRHub/Patient/c64b9c4d-13ad-4958-84a6-b315e46c3167"
            }
          }
        ],
        "extension": [
          {
            "url": "https://interop.esante.gouv.fr/ig/fhir/extensions/StructureDefinition/event-indicator",
            "valueString": "N"
          },
          {
            "url": "https://interop.esante.gouv.fr/ig/fhir/extensions/StructureDefinition/current-location",
            "valueString": "\"\"^^^^^^UF^^^\"\""
          },
          {
            "url": "https://interop.esante.gouv.fr/ig/fhir/extensions/StructureDefinition/custom-data",
            "valueString": "|M "
          }
        ]
      },
      "request": {
        "method": "POST",
        "url": "Provenance"
      }
    }
  ]
}