{
  "resourceType": "Bundle",
  "type": "transaction",
  "id": "24a94d2e-b94a-45b1-803f-e5b955b09901",
  "timestamp": "2025-04-28T12:27:33.452Z",
  "meta": {
    "profile": [
      "https://interop.esante.gouv.fr/ig/fhir/hl7/StructureDefinition/hl7-bundle"
    ],
    "security": [
      {
        "system": "https://mos.esante.gouv.fr/NOS/TRE_R283-Confidentiality/FHIR/TRE-R283-Confidentiality",
        "code": "N",
        "display": "Normal"
      }
    ],
    "tag": [
      {
        "system": "https://mos.esante.gouv.fr/NOS/TRE_R287-FormatCode/FHIR/TRE-R287-FormatCode",
        "code": "urn:ans:ci-sis:hl7:v2.5",
        "display": "HL7 v2.5 converti en FHIR R4 (ANS)"
      }
    ]
  },
  "entry": [
    {
      "fullUrl": "https://fhir.org/FHIRHub/Patient/f551790c-eda4-401d-8fdc-f356d21917cb",
      "resource": {
        "resourceType": "Patient",
        "id": "f551790c-eda4-401d-8fdc-f356d21917cb",
        "identifier": [
          {
            "system": "urn:CEGI",
            "value": "442777",
            "type": {
              "coding": [
                {
                  "system": "http://terminology.hl7.org/CodeSystem/v2-0203",
                  "code": "PI",
                  "display": "Patient internal identifier"
                }
              ]
            },
            "assigner": {
              "display": "CEGI"
            }
          },
          {
            "system": "urn:oid:1.2.250.1.213.1.4.8",
            "value": "248098060602525",
            "type": {
              "coding": [
                {
                  "system": "http://terminology.hl7.org/CodeSystem/v2-0203",
                  "code": "INS",
                  "display": "INS"
                }
              ]
            },
            "extension": [
              {
                "url": "https://apifhir.annuaire.sante.fr/ws-sync/exposed/structuredefinition/INS-NIR-Verifie",
                "valueBoolean": true
              },
              {
                "url": "https://apifhir.annuaire.sante.fr/ws-sync/exposed/structuredefinition/INS-Source",
                "valueCode": "RECUPERE"
              },
              {
                "url": "https://apifhir.annuaire.sante.fr/ws-sync/exposed/structuredefinition/INS-DateConsultation",
                "valueDateTime": "2025-04-28"
              }
            ],
            "assigner": {
              "display": "ASIP-SANTE-INS-NIR"
            }
          },
          {
            "system": "urn:CEGI",
            "value": "1000345108",
            "type": {
              "coding": [
                {
                  "system": "http://terminology.hl7.org/CodeSystem/v2-0203",
                  "code": "PIP",
                  "display": "PIP"
                }
              ]
            },
            "assigner": {
              "display": "CEGI"
            }
          }
        ],
        "name": [
          {
            "family": "SECLET",
            "use": "official",
            "prefix": [
              "MME"
            ]
          },
          {
            "family": "SECLET",
            "use": "official",
            "prefix": [
              "MME"
            ]
          }
        ],
        "birthDate": "1948-09-09",
        "gender": "female",
        "address": [
          {
            "line": [
              "7 RUE DU BOUJONNIER"
            ],
            "city": "FORMERIE",
            "postalCode": "60220",
            "country": "FRA",
            "use": "home",
            "extension": [
              {
                "url": "https://interop.esante.gouv.fr/ig/fhir/annuaire/StructureDefinition/commune-cog-code",
                "valueString": "60000"
              }
            ]
          }
        ]
      },
      "request": {
        "method": "POST",
        "url": "Patient"
      }
    },
    {
      "fullUrl": "https://fhir.org/FHIRHub/Person/58476b66-6261-4c73-bf46-47c64f9ad4a9",
      "resource": {
        "resourceType": "Person",
        "id": "58476b66-6261-4c73-bf46-47c64f9ad4a9",
        "name": [
          {
            "family": "SECLET",
            "use": "official",
            "prefix": [
              "MME"
            ]
          },
          {
            "family": "SECLET",
            "use": "official",
            "prefix": [
              "MME"
            ]
          }
        ],
        "gender": "female",
        "birthDate": "1948-09-09",
        "address": [
          {
            "line": [
              "7 RUE DU BOUJONNIER"
            ],
            "city": "FORMERIE",
            "postalCode": "60220",
            "country": "FRA",
            "use": "home",
            "extension": [
              {
                "url": "https://interop.esante.gouv.fr/ig/fhir/annuaire/StructureDefinition/commune-cog-code",
                "valueString": "60000"
              }
            ]
          }
        ],
        "link": [
          {
            "target": {
              "reference": "https://fhir.org/FHIRHub/Patient/f551790c-eda4-401d-8fdc-f356d21917cb"
            }
          }
        ]
      },
      "request": {
        "method": "POST",
        "url": "Person"
      }
    },
    {
      "fullUrl": "https://fhir.org/FHIRHub/Practitioner/5c4dd1cf-3e1d-4b4c-a044-ecd5517390ef",
      "resource": {
        "resourceType": "Practitioner",
        "id": "5c4dd1cf-3e1d-4b4c-a044-ecd5517390ef",
        "identifier": [
          {
            "system": "http://example.org/fhir/sid/provider-id",
            "value": "10001850758"
          }
        ],
        "name": [
          {
            "family": "BARTOLI",
            "given": [
              "PAULINE"
            ]
          }
        ]
      },
      "request": {
        "method": "POST",
        "url": "Practitioner"
      }
    },
    {
      "fullUrl": "https://fhir.org/FHIRHub/Encounter/dbf5fc0c-9eb4-4d3e-ae0a-bbda2d54f548",
      "resource": {
        "resourceType": "Encounter",
        "id": "dbf5fc0c-9eb4-4d3e-ae0a-bbda2d54f548",
        "status": "finished",
        "class": {
          "system": "http://terminology.hl7.org/CodeSystem/v3-ActCode",
          "code": "I",
          "display": "Inpatient"
        },
        "subject": {
          "reference": "https://fhir.org/FHIRHub/Patient/f551790c-eda4-401d-8fdc-f356d21917cb"
        },
        "period": {
          "start": null
        },
        "location": [
          {
            "location": {
              "display": "^^^CLINIQUE VICTOR PAUCHET&800009920&M"
            }
          }
        ],
        "participant": [
          {
            "individual": {
              "reference": "https://fhir.org/FHIRHub/Practitioner/5c4dd1cf-3e1d-4b4c-a044-ecd5517390ef"
            }
          }
        ]
      },
      "request": {
        "method": "POST",
        "url": "Encounter"
      }
    },
    {
      "fullUrl": "https://fhir.org/FHIRHub/Organization/49b5b6f8-3cce-4ba7-843f-b81ef5a9878c",
      "resource": {
        "resourceType": "Organization",
        "id": "49b5b6f8-3cce-4ba7-843f-b81ef5a9878c",
        "identifier": [
          {
            "system": "http://terminology.hl7.org/CodeSystem/v3-HL7",
            "value": "CEGI"
          }
        ],
        "name": "CEGI"
      },
      "request": {
        "method": "POST",
        "url": "Organization"
      }
    },
    {
      "fullUrl": "https://fhir.org/FHIRHub/RelatedPerson/38af9d7a-04e1-4af9-89ed-8f78c8feddc5",
      "resource": {
        "resourceType": "RelatedPerson",
        "id": "38af9d7a-04e1-4af9-89ed-8f78c8feddc5",
        "active": true,
        "patient": {
          "reference": "https://fhir.org/FHIRHub/Patient/f551790c-eda4-401d-8fdc-f356d21917cb"
        },
        "relationship": [
          {
            "coding": [
              {
                "system": "http://terminology.hl7.org/CodeSystem/v3-RoleCode",
                "code": "ONESELF",
                "display": "UNK"
              }
            ]
          }
        ],
        "name": [
          {
            "family": "REMY",
            "given": [
              "AUDREY"
            ]
          }
        ]
      },
      "request": {
        "method": "POST",
        "url": "RelatedPerson"
      }
    },
    {
      "fullUrl": "https://fhir.org/FHIRHub/Practitioner/4fcd4f15-67a4-4cd0-9a69-2ab6d51c3af4",
      "resource": {
        "resourceType": "Practitioner",
        "id": "4fcd4f15-67a4-4cd0-9a69-2ab6d51c3af4",
        "identifier": [
          {
            "system": "urn:oid:1.2.250.1.71.4.2.1",
            "value": "10100710366",
            "type": {
              "coding": [
                {
                  "system": "http://terminology.hl7.org/CodeSystem/v2-0203",
                  "code": "ASIP-SANTE-PS",
                  "display": "Provider Number"
                }
              ]
            }
          }
        ],
        "name": [
          {
            "family": "LEFRANCOIS",
            "given": [
              "PASCAL"
            ]
          }
        ],
        "active": true
      },
      "request": {
        "method": "POST",
        "url": "Practitioner"
      }
    },
    {
      "fullUrl": "https://fhir.org/FHIRHub/PractitionerRole/f059384a-709a-4022-9fe1-ca85dcec833f",
      "resource": {
        "resourceType": "PractitionerRole",
        "id": "f059384a-709a-4022-9fe1-ca85dcec833f",
        "practitioner": {
          "reference": "Practitioner/4fcd4f15-67a4-4cd0-9a69-2ab6d51c3af4"
        },
        "code": [
          {
            "coding": [
              {
                "system": "https://mos.esante.gouv.fr/NOS/TRE_A01-CadreExercice/FHIR/TRE-A01-CadreExercice",
                "code": "S",
                "display": "Médecin"
              },
              {
                "system": "http://terminology.hl7.org/CodeSystem/v2-0443",
                "code": "ODRP",
                "display": "Unknown Role"
              }
            ]
          }
        ],
        "active": true,
        "period": {},
        "subject": {
          "reference": "https://fhir.org/FHIRHub/Patient/f551790c-eda4-401d-8fdc-f356d21917cb"
        }
      },
      "request": {
        "method": "POST",
        "url": "PractitionerRole"
      }
    },
    {
      "fullUrl": "https://fhir.org/FHIRHub/Provenance/bb367c98-3e29-4cee-bf99-b1b3bb9a73fa",
      "resource": {
        "resourceType": "Provenance",
        "id": "bb367c98-3e29-4cee-bf99-b1b3bb9a73fa",
        "recorded": "2024-03-26T00:00:00+00:00",
        "activity": {
          "coding": [
            {
              "system": "http://terminology.hl7.org/CodeSystem/v3-DataOperation",
              "code": "INSERT",
              "display": "Create"
            }
          ]
        },
        "agent": [
          {
            "type": {
              "coding": [
                {
                  "system": "http://terminology.hl7.org/CodeSystem/provenance-participant-type",
                  "code": "author",
                  "display": "Author"
                }
              ]
            },
            "who": {
              "reference": "https://fhir.org/FHIRHub/Patient/f551790c-eda4-401d-8fdc-f356d21917cb"
            }
          }
        ],
        "extension": [
          {
            "url": "https://interop.esante.gouv.fr/ig/fhir/extensions/StructureDefinition/event-indicator",
            "valueString": "N"
          },
          {
            "url": "https://interop.esante.gouv.fr/ig/fhir/extensions/StructureDefinition/current-location",
            "valueString": "\"\"^^^^^^UF^^^\"\""
          },
          {
            "url": "https://interop.esante.gouv.fr/ig/fhir/extensions/StructureDefinition/custom-data",
            "valueString": "|M "
          }
        ]
      },
      "request": {
        "method": "POST",
        "url": "Provenance"
      }
    }
  ]
}