{
  "resourceType": "Bundle",
  "type": "transaction",
  "id": "54c8ec46-5bab-4712-b573-5dafa77e5510",
  "timestamp": "2025-04-27T16:14:29.659Z",
  "meta": {
    "profile": [
      "https://interop.esante.gouv.fr/ig/fhir/hl7/StructureDefinition/hl7-bundle"
    ],
    "security": [
      {
        "system": "https://mos.esante.gouv.fr/NOS/TRE_R283-Confidentiality/FHIR/TRE-R283-Confidentiality",
        "code": "N",
        "display": "Normal"
      }
    ],
    "tag": [
      {
        "system": "https://mos.esante.gouv.fr/NOS/TRE_R287-FormatCode/FHIR/TRE-R287-FormatCode",
        "code": "urn:ans:ci-sis:hl7:v2.5",
        "display": "HL7 v2.5 converti en FHIR R4 (ANS)"
      }
    ]
  },
  "entry": [
    {
      "fullUrl": "https://fhir.org/FHIRHub/Patient/9644bdfd-9392-4b94-82d5-ef6ba03e7f79",
      "resource": {
        "resourceType": "Patient",
        "id": "9644bdfd-9392-4b94-82d5-ef6ba03e7f79",
        "identifier": [
          {
            "system": "urn:SIMULATOR MRN",
            "value": "2590157287",
            "type": {
              "coding": [
                {
                  "system": "http://terminology.hl7.org/CodeSystem/v2-0203",
                  "code": "MRN",
                  "display": "MRN"
                }
              ]
            },
            "assigner": {
              "display": "SIMULATOR MRN"
            }
          }
        ],
        "name": [
          {
            "family": "Williams",
            "given": [
              "John",
              "G"
            ]
          }
        ],
        "birthDate": "1955-01-20",
        "gender": "male",
        "address": [
          {
            "line": [
              "260 STANLEY AVE"
            ],
            "city": "GREAT FALLS",
            "state": "MT",
            "postalCode": "59727",
            "country": "USA"
          }
        ]
      },
      "request": {
        "method": "POST",
        "url": "Patient"
      }
    },
    {
      "fullUrl": "https://fhir.org/FHIRHub/Person/53ba25fb-137d-4c17-8123-aaa099a9dc7e",
      "resource": {
        "resourceType": "Person",
        "id": "53ba25fb-137d-4c17-8123-aaa099a9dc7e",
        "name": [
          {
            "family": "Williams",
            "given": [
              "John",
              "G"
            ]
          }
        ],
        "gender": "male",
        "birthDate": "1955-01-20",
        "address": [
          {
            "line": [
              "260 STANLEY AVE"
            ],
            "city": "GREAT FALLS",
            "state": "MT",
            "postalCode": "59727",
            "country": "USA"
          }
        ],
        "link": [
          {
            "target": {
              "reference": "https://fhir.org/FHIRHub/Patient/9644bdfd-9392-4b94-82d5-ef6ba03e7f79"
            }
          }
        ]
      },
      "request": {
        "method": "POST",
        "url": "Person"
      }
    },
    {
      "fullUrl": "https://fhir.org/FHIRHub/Practitioner/0db05725-b63b-44eb-a038-95ce30e36f33",
      "resource": {
        "resourceType": "Practitioner",
        "id": "0db05725-b63b-44eb-a038-95ce30e36f33",
        "identifier": [
          {
            "system": "http://example.org/fhir/sid/provider-id",
            "value": "C006"
          }
        ],
        "name": [
          {
            "family": "Murphy",
            "given": [
              "C"
            ]
          }
        ]
      },
      "request": {
        "method": "POST",
        "url": "Practitioner"
      }
    },
    {
      "fullUrl": "https://fhir.org/FHIRHub/Encounter/8a77e33f-4593-4b97-9af2-75957c159de0",
      "resource": {
        "resourceType": "Encounter",
        "id": "8a77e33f-4593-4b97-9af2-75957c159de0",
        "status": "finished",
        "class": {
          "system": "http://terminology.hl7.org/CodeSystem/v3-ActCode",
          "code": "I",
          "display": "Inpatient"
        },
        "subject": {
          "reference": "https://fhir.org/FHIRHub/Patient/9644bdfd-9392-4b94-82d5-ef6ba03e7f79"
        },
        "period": {},
        "location": [
          {
            "location": {
              "display": "INCG^00284^01^GOOD HEALTH HOSPITAL^^I"
            }
          }
        ],
        "participant": [
          {
            "individual": {
              "reference": "https://fhir.org/FHIRHub/Practitioner/0db05725-b63b-44eb-a038-95ce30e36f33"
            }
          }
        ]
      },
      "request": {
        "method": "POST",
        "url": "Encounter"
      }
    },
    {
      "fullUrl": "https://fhir.org/FHIRHub/Organization/9b82cbc8-4e2b-4327-aacf-ba1b708d4300",
      "resource": {
        "resourceType": "Organization",
        "id": "9b82cbc8-4e2b-4327-aacf-ba1b708d4300",
        "identifier": [
          {
            "system": "http://terminology.hl7.org/CodeSystem/v3-HL7",
            "value": "SENDING_FACILITY"
          }
        ],
        "name": "SENDING_FACILITY"
      },
      "request": {
        "method": "POST",
        "url": "Organization"
      }
    }
  ]
}