{
  "resourceType": "Bundle",
  "type": "transaction",
  "id": "795f1624-4e5c-49c0-ae7d-003a37f27067",
  "timestamp": "2025-04-28T10:31:29.583Z",
  "meta": {
    "profile": [
      "https://interop.esante.gouv.fr/ig/fhir/hl7/StructureDefinition/hl7-bundle"
    ],
    "security": [
      {
        "system": "https://mos.esante.gouv.fr/NOS/TRE_R283-Confidentiality/FHIR/TRE-R283-Confidentiality",
        "code": "N",
        "display": "Normal"
      }
    ],
    "tag": [
      {
        "system": "https://mos.esante.gouv.fr/NOS/TRE_R287-FormatCode/FHIR/TRE-R287-FormatCode",
        "code": "urn:ans:ci-sis:hl7:v2.5",
        "display": "HL7 v2.5 converti en FHIR R4 (ANS)"
      }
    ]
  },
  "entry": [
    {
      "fullUrl": "https://fhir.org/FHIRHub/Patient/5a06eede-7a0a-4a54-aede-15a7269bb4f5",
      "resource": {
        "resourceType": "Patient",
        "id": "5a06eede-7a0a-4a54-aede-15a7269bb4f5",
        "identifier": [
          {
            "system": "urn:ADT1",
            "value": "583295",
            "assigner": {
              "display": "ADT1"
            }
          }
        ],
        "name": [
          {
            "family": "DOE",
            "given": [
              "JANE"
            ]
          }
        ],
        "birthDate": "1961-06-15",
        "gender": "unknown",
        "address": [
          {
            "line": [
              "123 MAIN STREET"
            ],
            "city": "GREENSBORO",
            "state": "NC",
            "postalCode": "27401-1020",
            "country": "FRA"
          }
        ],
        "telecom": [
          {
            "system": "phone",
            "value": "(919)379-1212",
            "use": "home"
          },
          {
            "system": "phone",
            "value": "(919)271-3434",
            "use": "work"
          },
          {
            "system": "phone",
            "value": "(919)277-3114",
            "use": "work"
          }
        ]
      },
      "request": {
        "method": "POST",
        "url": "Patient"
      }
    },
    {
      "fullUrl": "https://fhir.org/FHIRHub/Person/4e40dfa5-dec2-4584-8163-8899c458b876",
      "resource": {
        "resourceType": "Person",
        "id": "4e40dfa5-dec2-4584-8163-8899c458b876",
        "name": [
          {
            "family": "DOE",
            "given": [
              "JANE"
            ]
          }
        ],
        "gender": "unknown",
        "birthDate": "1961-06-15",
        "telecom": [
          {
            "system": "phone",
            "value": "(919)379-1212",
            "use": "home"
          },
          {
            "system": "phone",
            "value": "(919)271-3434",
            "use": "work"
          },
          {
            "system": "phone",
            "value": "(919)277-3114",
            "use": "work"
          }
        ],
        "address": [
          {
            "line": [
              "123 MAIN STREET"
            ],
            "city": "GREENSBORO",
            "state": "NC",
            "postalCode": "27401-1020",
            "country": "FRA"
          }
        ],
        "link": [
          {
            "target": {
              "reference": "https://fhir.org/FHIRHub/Patient/5a06eede-7a0a-4a54-aede-15a7269bb4f5"
            }
          }
        ]
      },
      "request": {
        "method": "POST",
        "url": "Person"
      }
    },
    {
      "fullUrl": "https://fhir.org/FHIRHub/Encounter/c4774a57-82ca-4cee-b4e3-f27581b6e31f",
      "resource": {
        "resourceType": "Encounter",
        "id": "c4774a57-82ca-4cee-b4e3-f27581b6e31f",
        "status": "finished",
        "class": {
          "system": "http://terminology.hl7.org/CodeSystem/v3-ActCode",
          "code": "E",
          "display": "Emergency"
        },
        "subject": {
          "reference": "https://fhir.org/FHIRHub/Patient/5a06eede-7a0a-4a54-aede-15a7269bb4f5"
        },
        "period": {
          "start": "2000-07-01T08:00:00+00:00"
        }
      },
      "request": {
        "method": "POST",
        "url": "Encounter"
      }
    },
    {
      "fullUrl": "https://fhir.org/FHIRHub/Observation/ea77322f-294c-49c9-9f63-83cd011ac712",
      "resource": {
        "resourceType": "Observation",
        "id": "ea77322f-294c-49c9-9f63-83cd011ac712",
        "status": "final",
        "code": {
          "coding": [
            {
              "system": "http://loinc.org",
              "code": "SR Instance UID"
            }
          ]
        },
        "valueString": "1.123456.2.2000.31.2.1",
        "subject": {
          "reference": "https://fhir.org/FHIRHub/Patient/5a06eede-7a0a-4a54-aede-15a7269bb4f5"
        },
        "encounter": {
          "reference": "https://fhir.org/FHIRHub/Encounter/c4774a57-82ca-4cee-b4e3-f27581b6e31f"
        }
      },
      "request": {
        "method": "POST",
        "url": "Observation"
      }
    },
    {
      "fullUrl": "https://fhir.org/FHIRHub/Condition/85d0c862-5820-4d7f-9351-f884b5d7d538",
      "resource": {
        "resourceType": "Condition",
        "id": "85d0c862-5820-4d7f-9351-f884b5d7d538",
        "clinicalStatus": {
          "coding": [
            {
              "system": "http://terminology.hl7.org/CodeSystem/condition-clinical",
              "code": "active"
            }
          ]
        },
        "code": {
          "coding": [
            {
              "system": "http://hl7.org/fhir/sid/icd-10",
              "code": "1550",
              "display": "Unknown Diagnosis"
            }
          ]
        },
        "subject": {
          "reference": "https://fhir.org/FHIRHub/Patient/5a06eede-7a0a-4a54-aede-15a7269bb4f5"
        },
        "encounter": {
          "reference": "https://fhir.org/FHIRHub/Encounter/c4774a57-82ca-4cee-b4e3-f27581b6e31f"
        },
        "recordedDate": null
      },
      "request": {
        "method": "POST",
        "url": "Condition"
      }
    },
    {
      "fullUrl": "https://fhir.org/FHIRHub/AllergyIntolerance/6cdb1212-2a40-4b0a-bd31-f3a8c7cc7b3d",
      "resource": {
        "resourceType": "AllergyIntolerance",
        "id": "6cdb1212-2a40-4b0a-bd31-f3a8c7cc7b3d",
        "type": "allergy",
        "criticality": "low",
        "code": {
          "coding": [
            {
              "system": "http://terminology.hl7.org/CodeSystem/v3-AllergyIntolerance",
              "code": "UNSP",
              "display": "PENICILLIN"
            }
          ]
        },
        "patient": {
          "reference": "https://fhir.org/FHIRHub/Patient/5a06eede-7a0a-4a54-aede-15a7269bb4f5"
        }
      },
      "request": {
        "method": "POST",
        "url": "AllergyIntolerance"
      }
    },
    {
      "fullUrl": "https://fhir.org/FHIRHub/AllergyIntolerance/ccbb54e4-85de-4fa4-a025-6deb8c04f0a1",
      "resource": {
        "resourceType": "AllergyIntolerance",
        "id": "ccbb54e4-85de-4fa4-a025-6deb8c04f0a1",
        "type": "allergy",
        "criticality": "low",
        "code": {
          "coding": [
            {
              "system": "http://terminology.hl7.org/CodeSystem/v3-AllergyIntolerance",
              "code": "UNSP",
              "display": "CAT DANDER"
            }
          ]
        },
        "patient": {
          "reference": "https://fhir.org/FHIRHub/Patient/5a06eede-7a0a-4a54-aede-15a7269bb4f5"
        }
      },
      "request": {
        "method": "POST",
        "url": "AllergyIntolerance"
      }
    },
    {
      "fullUrl": "https://fhir.org/FHIRHub/Organization/f1c42331-1544-4367-b40d-681b74afc48a",
      "resource": {
        "resourceType": "Organization",
        "id": "f1c42331-1544-4367-b40d-681b74afc48a",
        "identifier": [
          {
            "system": "http://terminology.hl7.org/CodeSystem/v3-HL7",
            "value": "XYZ_ADMITTING"
          }
        ],
        "name": "XYZ_ADMITTING"
      },
      "request": {
        "method": "POST",
        "url": "Organization"
      }
    },
    {
      "fullUrl": "https://fhir.org/FHIRHub/Organization/c9f2f618-bed0-4c37-8be9-f18df466c6bd",
      "resource": {
        "resourceType": "Organization",
        "id": "c9f2f618-bed0-4c37-8be9-f18df466c6bd",
        "identifier": [
          {
            "system": "urn:oid:1.2.250.1.213.1.6.7",
            "value": "1234"
          }
        ],
        "name": "BCMD",
        "type": [
          {
            "coding": [
              {
                "system": "https://mos.esante.gouv.fr/NOS/TRE_G08-TypeOrganisme/FHIR/TRE-G08-TypeOrganisme",
                "code": "CPAM",
                "display": "Caisse Primaire d'Assurance Maladie"
              }
            ]
          }
        ]
      },
      "request": {
        "method": "POST",
        "url": "Organization"
      }
    },
    {
      "fullUrl": "https://fhir.org/FHIRHub/Coverage/ed7555ce-9843-4354-a6d2-08effe01e8d0",
      "resource": {
        "resourceType": "Coverage",
        "id": "ed7555ce-9843-4354-a6d2-08effe01e8d0",
        "status": "active",
        "type": {
          "coding": [
            {
              "system": "https://mos.esante.gouv.fr/NOS/JDV_J65-TypeMutuelles/FHIR/JDV-J65-TypeMutuelles",
              "code": "AMO",
              "display": "Assurance Maladie Obligatoire"
            }
          ]
        },
        "subscriberId": "",
        "beneficiary": {
          "reference": "https://fhir.org/FHIRHub/Patient/5a06eede-7a0a-4a54-aede-15a7269bb4f5"
        },
        "period": {},
        "payor": [
          {
            "reference": "Organization/c9f2f618-bed0-4c37-8be9-f18df466c6bd"
          }
        ]
      },
      "request": {
        "method": "POST",
        "url": "Coverage"
      }
    },
    {
      "fullUrl": "https://fhir.org/FHIRHub/RelatedPerson/f9ed3e83-6018-4ec4-a959-1a2922406bbf",
      "resource": {
        "resourceType": "RelatedPerson",
        "id": "f9ed3e83-6018-4ec4-a959-1a2922406bbf",
        "active": true,
        "patient": {
          "reference": "https://fhir.org/FHIRHub/Patient/5a06eede-7a0a-4a54-aede-15a7269bb4f5"
        },
        "relationship": [
          {
            "coding": [
              {
                "system": "http://terminology.hl7.org/CodeSystem/v3-RoleCode",
                "code": "SPS",
                "display": "SPO"
              }
            ]
          }
        ],
        "name": [
          {
            "family": "BATES",
            "given": [
              "RONALD",
              "L"
            ]
          }
        ]
      },
      "request": {
        "method": "POST",
        "url": "RelatedPerson"
      }
    },
    {
      "fullUrl": "https://fhir.org/FHIRHub/Practitioner/07d1725f-8b03-499f-9870-526571e9e52c",
      "resource": {
        "resourceType": "Practitioner",
        "id": "07d1725f-8b03-499f-9870-526571e9e52c",
        "identifier": [
          {
            "system": "urn:oid:http://example.org/fhir/sid/provider-id",
            "value": "KATE",
            "type": {
              "coding": [
                {
                  "system": "http://terminology.hl7.org/CodeSystem/v2-0203",
                  "code": "unknown",
                  "display": "Provider Number"
                }
              ]
            }
          }
        ],
        "name": [
          {
            "family": "SMITH",
            "given": [
              "ELLEN"
            ]
          }
        ],
        "active": true
      },
      "request": {
        "method": "POST",
        "url": "Practitioner"
      }
    },
    {
      "fullUrl": "https://fhir.org/FHIRHub/PractitionerRole/6873a187-04e4-4d35-8121-fb2a1051ce3f",
      "resource": {
        "resourceType": "PractitionerRole",
        "id": "6873a187-04e4-4d35-8121-fb2a1051ce3f",
        "practitioner": {
          "reference": "Practitioner/07d1725f-8b03-499f-9870-526571e9e52c"
        },
        "code": [
          {
            "coding": [
              {
                "system": "https://mos.esante.gouv.fr/NOS/TRE_A01-CadreExercice/FHIR/TRE-A01-CadreExercice",
                "code": "S",
                "display": "Médecin"
              },
              {
                "system": "http://terminology.hl7.org/CodeSystem/v2-0443",
                "code": "CP",
                "display": "Unknown Role"
              }
            ]
          }
        ],
        "active": true,
        "period": {
          "start": "1995-05-01T12:01:00+00:00"
        },
        "subject": {
          "reference": "https://fhir.org/FHIRHub/Patient/5a06eede-7a0a-4a54-aede-15a7269bb4f5"
        }
      },
      "request": {
        "method": "POST",
        "url": "PractitionerRole"
      }
    }
  ]
}