{
  "resourceType": "Bundle",
  "type": "transaction",
  "id": "aed02150-b12a-469c-8542-030aa2dd33a9",
  "timestamp": "2025-04-28T12:57:57.457Z",
  "meta": {
    "profile": [
      "https://interop.esante.gouv.fr/ig/fhir/hl7/StructureDefinition/hl7-bundle"
    ],
    "security": [
      {
        "system": "https://mos.esante.gouv.fr/NOS/TRE_R283-Confidentiality/FHIR/TRE-R283-Confidentiality",
        "code": "N",
        "display": "Normal"
      }
    ],
    "tag": [
      {
        "system": "https://mos.esante.gouv.fr/NOS/TRE_R287-FormatCode/FHIR/TRE-R287-FormatCode",
        "code": "urn:ans:ci-sis:hl7:v2.5",
        "display": "HL7 v2.5 converti en FHIR R4 (ANS)"
      }
    ]
  },
  "entry": [
    {
      "fullUrl": "https://fhir.org/FHIRHub/Patient/80fc74e2-47f6-45fa-966f-0413ac2e3f6f",
      "resource": {
        "resourceType": "Patient",
        "id": "80fc74e2-47f6-45fa-966f-0413ac2e3f6f",
        "identifier": [
          {
            "system": "urn:CEGI",
            "value": "442777",
            "type": {
              "coding": [
                {
                  "system": "http://terminology.hl7.org/CodeSystem/v2-0203",
                  "code": "PI",
                  "display": "Patient internal identifier"
                }
              ]
            },
            "assigner": {
              "display": "CEGI"
            }
          },
          {
            "system": "urn:oid:1.2.250.1.213.1.4.8",
            "value": "248098060602525",
            "type": {
              "coding": [
                {
                  "system": "http://terminology.hl7.org/CodeSystem/v2-0203",
                  "code": "INS",
                  "display": "INS"
                }
              ]
            },
            "extension": [
              {
                "url": "https://apifhir.annuaire.sante.fr/ws-sync/exposed/structuredefinition/INS-NIR-Verifie",
                "valueBoolean": true
              },
              {
                "url": "https://apifhir.annuaire.sante.fr/ws-sync/exposed/structuredefinition/INS-Source",
                "valueCode": "RECUPERE"
              },
              {
                "url": "https://apifhir.annuaire.sante.fr/ws-sync/exposed/structuredefinition/INS-DateConsultation",
                "valueDateTime": "2025-04-28"
              }
            ],
            "assigner": {
              "display": "ASIP-SANTE-INS-NIR"
            }
          },
          {
            "system": "urn:CEGI",
            "value": "1000345108",
            "type": {
              "coding": [
                {
                  "system": "http://terminology.hl7.org/CodeSystem/v2-0203",
                  "code": "PIP",
                  "display": "PIP"
                }
              ]
            },
            "assigner": {
              "display": "CEGI"
            }
          }
        ],
        "name": [
          {
            "family": "SECLET",
            "use": "official",
            "prefix": [
              "MME"
            ]
          },
          {
            "family": "SECLET",
            "use": "official",
            "prefix": [
              "MME"
            ]
          }
        ],
        "birthDate": "1948-09-09",
        "gender": "female",
        "address": [
          {
            "line": [
              "7 RUE DU BOUJONNIER"
            ],
            "city": "FORMERIE",
            "postalCode": "60220",
            "country": "FRA",
            "use": "home",
            "extension": [
              {
                "url": "https://interop.esante.gouv.fr/ig/fhir/annuaire/StructureDefinition/commune-cog-code",
                "valueString": "60000"
              }
            ]
          }
        ]
      },
      "request": {
        "method": "POST",
        "url": "Patient"
      }
    },
    {
      "fullUrl": "https://fhir.org/FHIRHub/Person/d8792b9d-918c-46ab-b989-d9bc8f43a9a9",
      "resource": {
        "resourceType": "Person",
        "id": "d8792b9d-918c-46ab-b989-d9bc8f43a9a9",
        "name": [
          {
            "family": "SECLET",
            "use": "official",
            "prefix": [
              "MME"
            ]
          },
          {
            "family": "SECLET",
            "use": "official",
            "prefix": [
              "MME"
            ]
          }
        ],
        "gender": "female",
        "birthDate": "1948-09-09",
        "address": [
          {
            "line": [
              "7 RUE DU BOUJONNIER"
            ],
            "city": "FORMERIE",
            "postalCode": "60220",
            "country": "FRA",
            "use": "home",
            "extension": [
              {
                "url": "https://interop.esante.gouv.fr/ig/fhir/annuaire/StructureDefinition/commune-cog-code",
                "valueString": "60000"
              }
            ]
          }
        ],
        "link": [
          {
            "target": {
              "reference": "https://fhir.org/FHIRHub/Patient/80fc74e2-47f6-45fa-966f-0413ac2e3f6f"
            }
          }
        ]
      },
      "request": {
        "method": "POST",
        "url": "Person"
      }
    },
    {
      "fullUrl": "https://fhir.org/FHIRHub/Practitioner/47d14648-0d5c-4fba-8ced-80ffba131e1a",
      "resource": {
        "resourceType": "Practitioner",
        "id": "47d14648-0d5c-4fba-8ced-80ffba131e1a",
        "identifier": [
          {
            "system": "http://example.org/fhir/sid/provider-id",
            "value": "10001850758"
          }
        ],
        "name": [
          {
            "family": "BARTOLI",
            "given": [
              "PAULINE"
            ]
          }
        ]
      },
      "request": {
        "method": "POST",
        "url": "Practitioner"
      }
    },
    {
      "fullUrl": "https://fhir.org/FHIRHub/Encounter/ad7a7c4e-4b5f-4c94-ae3d-0c1d34abf065",
      "resource": {
        "resourceType": "Encounter",
        "id": "ad7a7c4e-4b5f-4c94-ae3d-0c1d34abf065",
        "status": "finished",
        "class": {
          "system": "http://terminology.hl7.org/CodeSystem/v3-ActCode",
          "code": "I",
          "display": "Inpatient"
        },
        "subject": {
          "reference": "https://fhir.org/FHIRHub/Patient/80fc74e2-47f6-45fa-966f-0413ac2e3f6f"
        },
        "period": {
          "start": null
        },
        "location": [
          {
            "location": {
              "display": "^^^CLINIQUE VICTOR PAUCHET&800009920&M"
            }
          }
        ],
        "participant": [
          {
            "individual": {
              "reference": "https://fhir.org/FHIRHub/Practitioner/47d14648-0d5c-4fba-8ced-80ffba131e1a"
            }
          }
        ]
      },
      "request": {
        "method": "POST",
        "url": "Encounter"
      }
    },
    {
      "fullUrl": "https://fhir.org/FHIRHub/Organization/8a572849-64e9-495a-aef8-10fcb1f0a6b7",
      "resource": {
        "resourceType": "Organization",
        "id": "8a572849-64e9-495a-aef8-10fcb1f0a6b7",
        "identifier": [
          {
            "system": "http://terminology.hl7.org/CodeSystem/v3-HL7",
            "value": "CEGI"
          }
        ],
        "name": "CEGI"
      },
      "request": {
        "method": "POST",
        "url": "Organization"
      }
    },
    {
      "fullUrl": "https://fhir.org/FHIRHub/RelatedPerson/abe8d620-0bd0-4cc5-aa8b-c73a2994f24b",
      "resource": {
        "resourceType": "RelatedPerson",
        "id": "abe8d620-0bd0-4cc5-aa8b-c73a2994f24b",
        "active": true,
        "patient": {
          "reference": "https://fhir.org/FHIRHub/Patient/80fc74e2-47f6-45fa-966f-0413ac2e3f6f"
        },
        "relationship": [
          {
            "coding": [
              {
                "system": "http://terminology.hl7.org/CodeSystem/v3-RoleCode",
                "code": "ONESELF",
                "display": "UNK"
              }
            ]
          }
        ],
        "name": [
          {
            "family": "REMY",
            "given": [
              "AUDREY"
            ]
          }
        ]
      },
      "request": {
        "method": "POST",
        "url": "RelatedPerson"
      }
    }
  ]
}