{
  "resourceType": "Bundle",
  "type": "transaction",
  "id": "d75cd034-4f2d-4372-9f1d-e1aba96a4e90",
  "timestamp": "2025-04-28T12:26:52.743Z",
  "meta": {
    "profile": [
      "https://interop.esante.gouv.fr/ig/fhir/hl7/StructureDefinition/hl7-bundle"
    ],
    "security": [
      {
        "system": "https://mos.esante.gouv.fr/NOS/TRE_R283-Confidentiality/FHIR/TRE-R283-Confidentiality",
        "code": "N",
        "display": "Normal"
      }
    ],
    "tag": [
      {
        "system": "https://mos.esante.gouv.fr/NOS/TRE_R287-FormatCode/FHIR/TRE-R287-FormatCode",
        "code": "urn:ans:ci-sis:hl7:v2.5",
        "display": "HL7 v2.5 converti en FHIR R4 (ANS)"
      }
    ]
  },
  "entry": [
    {
      "fullUrl": "https://fhir.org/FHIRHub/Patient/7e340b92-c2ba-449f-9e52-244b28ab9f50",
      "resource": {
        "resourceType": "Patient",
        "id": "7e340b92-c2ba-449f-9e52-244b28ab9f50",
        "identifier": [
          {
            "system": "urn:CEGI",
            "value": "442777",
            "type": {
              "coding": [
                {
                  "system": "http://terminology.hl7.org/CodeSystem/v2-0203",
                  "code": "PI",
                  "display": "Patient internal identifier"
                }
              ]
            },
            "assigner": {
              "display": "CEGI"
            }
          },
          {
            "system": "urn:oid:1.2.250.1.213.1.4.8",
            "value": "248098060602525",
            "type": {
              "coding": [
                {
                  "system": "http://terminology.hl7.org/CodeSystem/v2-0203",
                  "code": "INS",
                  "display": "INS"
                }
              ]
            },
            "extension": [
              {
                "url": "https://apifhir.annuaire.sante.fr/ws-sync/exposed/structuredefinition/INS-NIR-Verifie",
                "valueBoolean": true
              },
              {
                "url": "https://apifhir.annuaire.sante.fr/ws-sync/exposed/structuredefinition/INS-Source",
                "valueCode": "RECUPERE"
              },
              {
                "url": "https://apifhir.annuaire.sante.fr/ws-sync/exposed/structuredefinition/INS-DateConsultation",
                "valueDateTime": "2025-04-28"
              }
            ],
            "assigner": {
              "display": "ASIP-SANTE-INS-NIR"
            }
          },
          {
            "system": "urn:CEGI",
            "value": "1000345108",
            "type": {
              "coding": [
                {
                  "system": "http://terminology.hl7.org/CodeSystem/v2-0203",
                  "code": "PIP",
                  "display": "PIP"
                }
              ]
            },
            "assigner": {
              "display": "CEGI"
            }
          }
        ],
        "name": [
          {
            "family": "SECLET",
            "use": "official",
            "prefix": [
              "MME"
            ]
          },
          {
            "family": "SECLET",
            "use": "official",
            "prefix": [
              "MME"
            ]
          }
        ],
        "birthDate": "1948-09-09",
        "gender": "female",
        "address": [
          {
            "line": [
              "7 RUE DU BOUJONNIER"
            ],
            "city": "FORMERIE",
            "postalCode": "60220",
            "country": "FRA",
            "use": "home",
            "extension": [
              {
                "url": "https://interop.esante.gouv.fr/ig/fhir/annuaire/StructureDefinition/commune-cog-code",
                "valueString": "60000"
              }
            ]
          }
        ]
      },
      "request": {
        "method": "POST",
        "url": "Patient"
      }
    },
    {
      "fullUrl": "https://fhir.org/FHIRHub/Person/98000db9-141b-4d3f-af64-c68d2ea7839e",
      "resource": {
        "resourceType": "Person",
        "id": "98000db9-141b-4d3f-af64-c68d2ea7839e",
        "name": [
          {
            "family": "SECLET",
            "use": "official",
            "prefix": [
              "MME"
            ]
          },
          {
            "family": "SECLET",
            "use": "official",
            "prefix": [
              "MME"
            ]
          }
        ],
        "gender": "female",
        "birthDate": "1948-09-09",
        "address": [
          {
            "line": [
              "7 RUE DU BOUJONNIER"
            ],
            "city": "FORMERIE",
            "postalCode": "60220",
            "country": "FRA",
            "use": "home",
            "extension": [
              {
                "url": "https://interop.esante.gouv.fr/ig/fhir/annuaire/StructureDefinition/commune-cog-code",
                "valueString": "60000"
              }
            ]
          }
        ],
        "link": [
          {
            "target": {
              "reference": "https://fhir.org/FHIRHub/Patient/7e340b92-c2ba-449f-9e52-244b28ab9f50"
            }
          }
        ]
      },
      "request": {
        "method": "POST",
        "url": "Person"
      }
    },
    {
      "fullUrl": "https://fhir.org/FHIRHub/Practitioner/f342c32f-fbf0-470e-9617-c3458aa46497",
      "resource": {
        "resourceType": "Practitioner",
        "id": "f342c32f-fbf0-470e-9617-c3458aa46497",
        "identifier": [
          {
            "system": "http://example.org/fhir/sid/provider-id",
            "value": "10001850758"
          }
        ],
        "name": [
          {
            "family": "BARTOLI",
            "given": [
              "PAULINE"
            ]
          }
        ]
      },
      "request": {
        "method": "POST",
        "url": "Practitioner"
      }
    },
    {
      "fullUrl": "https://fhir.org/FHIRHub/Encounter/ef1a8d4e-bee2-4a8e-b740-f657a48e2450",
      "resource": {
        "resourceType": "Encounter",
        "id": "ef1a8d4e-bee2-4a8e-b740-f657a48e2450",
        "status": "finished",
        "class": {
          "system": "http://terminology.hl7.org/CodeSystem/v3-ActCode",
          "code": "I",
          "display": "Inpatient"
        },
        "subject": {
          "reference": "https://fhir.org/FHIRHub/Patient/7e340b92-c2ba-449f-9e52-244b28ab9f50"
        },
        "period": {
          "start": null
        },
        "location": [
          {
            "location": {
              "display": "^^^CLINIQUE VICTOR PAUCHET&800009920&M"
            }
          }
        ],
        "participant": [
          {
            "individual": {
              "reference": "https://fhir.org/FHIRHub/Practitioner/f342c32f-fbf0-470e-9617-c3458aa46497"
            }
          }
        ]
      },
      "request": {
        "method": "POST",
        "url": "Encounter"
      }
    },
    {
      "fullUrl": "https://fhir.org/FHIRHub/Organization/a159bd0e-d4ef-4df7-a5eb-11c2c81d49dd",
      "resource": {
        "resourceType": "Organization",
        "id": "a159bd0e-d4ef-4df7-a5eb-11c2c81d49dd",
        "identifier": [
          {
            "system": "http://terminology.hl7.org/CodeSystem/v3-HL7",
            "value": "CEGI"
          }
        ],
        "name": "CEGI"
      },
      "request": {
        "method": "POST",
        "url": "Organization"
      }
    },
    {
      "fullUrl": "https://fhir.org/FHIRHub/RelatedPerson/d6cd1df5-4338-4bd1-87fc-ce6c8c11046c",
      "resource": {
        "resourceType": "RelatedPerson",
        "id": "d6cd1df5-4338-4bd1-87fc-ce6c8c11046c",
        "active": true,
        "patient": {
          "reference": "https://fhir.org/FHIRHub/Patient/7e340b92-c2ba-449f-9e52-244b28ab9f50"
        },
        "relationship": [
          {
            "coding": [
              {
                "system": "http://terminology.hl7.org/CodeSystem/v3-RoleCode",
                "code": "ONESELF",
                "display": "UNK"
              }
            ]
          }
        ],
        "name": [
          {
            "family": "REMY",
            "given": [
              "AUDREY"
            ]
          }
        ]
      },
      "request": {
        "method": "POST",
        "url": "RelatedPerson"
      }
    }
  ]
}