{
  "resourceType": "Bundle",
  "type": "transaction",
  "id": "6c014208-7c92-4c88-adf7-853118ca1c9f",
  "timestamp": "2025-04-27T16:14:29.665Z",
  "meta": {
    "profile": [
      "https://interop.esante.gouv.fr/ig/fhir/hl7/StructureDefinition/hl7-bundle"
    ],
    "security": [
      {
        "system": "https://mos.esante.gouv.fr/NOS/TRE_R283-Confidentiality/FHIR/TRE-R283-Confidentiality",
        "code": "N",
        "display": "Normal"
      }
    ],
    "tag": [
      {
        "system": "https://mos.esante.gouv.fr/NOS/TRE_R287-FormatCode/FHIR/TRE-R287-FormatCode",
        "code": "urn:ans:ci-sis:hl7:v2.5",
        "display": "HL7 v2.5 converti en FHIR R4 (ANS)"
      }
    ]
  },
  "entry": [
    {
      "fullUrl": "https://fhir.org/FHIRHub/Patient/1b0eeddf-83df-478a-b09d-15becfb2291e",
      "resource": {
        "resourceType": "Patient",
        "id": "1b0eeddf-83df-478a-b09d-15becfb2291e",
        "identifier": [
          {
            "system": "urn:FACILITY_ID",
            "value": "MRN12345",
            "type": {
              "coding": [
                {
                  "system": "http://terminology.hl7.org/CodeSystem/v2-0203",
                  "code": "MRN",
                  "display": "MRN"
                }
              ]
            },
            "assigner": {
              "display": "FACILITY_ID"
            }
          }
        ],
        "name": [
          {
            "family": "DOE",
            "given": [
              "JOHN",
              "MIDDLE"
            ]
          }
        ],
        "birthDate": "1980-01-01",
        "gender": "male",
        "address": [
          {
            "line": [
              "123 MAIN ST",
              "APT 4B"
            ],
            "city": "ANYTOWN",
            "state": "NY",
            "postalCode": "12345",
            "country": "USA"
          }
        ],
        "telecom": [
          {
            "system": "phone",
            "value": "(555)555-1234",
            "use": "home"
          }
        ]
      },
      "request": {
        "method": "POST",
        "url": "Patient"
      }
    },
    {
      "fullUrl": "https://fhir.org/FHIRHub/Person/39a88488-2a60-4d3b-9ceb-d814ccbbc730",
      "resource": {
        "resourceType": "Person",
        "id": "39a88488-2a60-4d3b-9ceb-d814ccbbc730",
        "name": [
          {
            "family": "DOE",
            "given": [
              "JOHN",
              "MIDDLE"
            ]
          }
        ],
        "gender": "male",
        "birthDate": "1980-01-01",
        "telecom": [
          {
            "system": "phone",
            "value": "(555)555-1234",
            "use": "home"
          }
        ],
        "address": [
          {
            "line": [
              "123 MAIN ST",
              "APT 4B"
            ],
            "city": "ANYTOWN",
            "state": "NY",
            "postalCode": "12345",
            "country": "USA"
          }
        ],
        "link": [
          {
            "target": {
              "reference": "https://fhir.org/FHIRHub/Patient/1b0eeddf-83df-478a-b09d-15becfb2291e"
            }
          }
        ]
      },
      "request": {
        "method": "POST",
        "url": "Person"
      }
    },
    {
      "fullUrl": "https://fhir.org/FHIRHub/Practitioner/624f43e0-e294-4f11-a0d1-f00d3af153ff",
      "resource": {
        "resourceType": "Practitioner",
        "id": "624f43e0-e294-4f11-a0d1-f00d3af153ff",
        "identifier": [
          {
            "system": "http://example.org/fhir/sid/provider-id",
            "value": "123456"
          }
        ],
        "name": [
          {
            "family": "SMITH",
            "given": [
              "JANE"
            ]
          }
        ]
      },
      "request": {
        "method": "POST",
        "url": "Practitioner"
      }
    },
    {
      "fullUrl": "https://fhir.org/FHIRHub/Encounter/ae3941b6-e61c-415d-a2c5-36ad47c840a2",
      "resource": {
        "resourceType": "Encounter",
        "id": "ae3941b6-e61c-415d-a2c5-36ad47c840a2",
        "status": "finished",
        "class": {
          "system": "http://terminology.hl7.org/CodeSystem/v3-ActCode",
          "code": "O",
          "display": "Outpatient"
        },
        "subject": {
          "reference": "https://fhir.org/FHIRHub/Patient/1b0eeddf-83df-478a-b09d-15becfb2291e"
        },
        "period": {
          "end": "2023-02-28T08:00:00+00:00"
        },
        "location": [
          {
            "location": {
              "display": "3N^301^1^^^IN^FACILITY_ID"
            }
          }
        ],
        "participant": [
          {
            "individual": {
              "reference": "https://fhir.org/FHIRHub/Practitioner/624f43e0-e294-4f11-a0d1-f00d3af153ff"
            }
          }
        ]
      },
      "request": {
        "method": "POST",
        "url": "Encounter"
      }
    },
    {
      "fullUrl": "https://fhir.org/FHIRHub/Observation/c4d943e1-8af9-4741-b5cf-caf5f3c0082b",
      "resource": {
        "resourceType": "Observation",
        "id": "c4d943e1-8af9-4741-b5cf-caf5f3c0082b",
        "status": "final",
        "code": {
          "coding": [
            {
              "system": "http://loinc.org",
              "code": "HGB",
              "display": "HEMOGLOBIN"
            }
          ]
        },
        "subject": {
          "reference": "https://fhir.org/FHIRHub/Patient/1b0eeddf-83df-478a-b09d-15becfb2291e"
        },
        "encounter": {
          "reference": "https://fhir.org/FHIRHub/Encounter/ae3941b6-e61c-415d-a2c5-36ad47c840a2"
        },
        "valueQuantity": {
          "value": 14.5,
          "unit": "g/dL",
          "system": "http://unitsofmeasure.org",
          "code": "g/dL"
        },
        "effectiveDateTime": "2023-02-28T09:01:45+00:00"
      },
      "request": {
        "method": "POST",
        "url": "Observation"
      }
    },
    {
      "fullUrl": "https://fhir.org/FHIRHub/Observation/acfeeadf-915d-476c-b936-b53e2aae9a40",
      "resource": {
        "resourceType": "Observation",
        "id": "acfeeadf-915d-476c-b936-b53e2aae9a40",
        "status": "final",
        "code": {
          "coding": [
            {
              "system": "http://loinc.org",
              "code": "WBC",
              "display": "WHITE BLOOD CELL COUNT"
            }
          ]
        },
        "subject": {
          "reference": "https://fhir.org/FHIRHub/Patient/1b0eeddf-83df-478a-b09d-15becfb2291e"
        },
        "encounter": {
          "reference": "https://fhir.org/FHIRHub/Encounter/ae3941b6-e61c-415d-a2c5-36ad47c840a2"
        },
        "valueQuantity": {
          "value": 11.5,
          "unit": "10*3/uL",
          "system": "http://unitsofmeasure.org",
          "code": "10*3/uL"
        },
        "effectiveDateTime": "2023-02-28T09:01:45+00:00",
        "interpretation": [
          {
            "coding": [
              {
                "system": "http://terminology.hl7.org/CodeSystem/v3-ObservationInterpretation",
                "code": "H",
                "display": "H"
              }
            ]
          }
        ]
      },
      "request": {
        "method": "POST",
        "url": "Observation"
      }
    },
    {
      "fullUrl": "https://fhir.org/FHIRHub/Observation/f7f91382-6896-4bd6-9a08-85d29fec93e5",
      "resource": {
        "resourceType": "Observation",
        "id": "f7f91382-6896-4bd6-9a08-85d29fec93e5",
        "status": "final",
        "code": {
          "coding": [
            {
              "system": "http://loinc.org",
              "code": "PLT",
              "display": "PLATELET COUNT"
            }
          ]
        },
        "subject": {
          "reference": "https://fhir.org/FHIRHub/Patient/1b0eeddf-83df-478a-b09d-15becfb2291e"
        },
        "encounter": {
          "reference": "https://fhir.org/FHIRHub/Encounter/ae3941b6-e61c-415d-a2c5-36ad47c840a2"
        },
        "valueQuantity": {
          "value": 250,
          "unit": "10*3/uL",
          "system": "http://unitsofmeasure.org",
          "code": "10*3/uL"
        },
        "effectiveDateTime": "2023-02-28T09:01:45+00:00"
      },
      "request": {
        "method": "POST",
        "url": "Observation"
      }
    },
    {
      "fullUrl": "https://fhir.org/FHIRHub/Organization/1131bfd4-2488-47e3-80fd-fff26002cad8",
      "resource": {
        "resourceType": "Organization",
        "id": "1131bfd4-2488-47e3-80fd-fff26002cad8",
        "identifier": [
          {
            "system": "http://terminology.hl7.org/CodeSystem/v3-HL7",
            "value": "SENDING_FACILITY"
          }
        ],
        "name": "SENDING_FACILITY"
      },
      "request": {
        "method": "POST",
        "url": "Organization"
      }
    },
    {
      "fullUrl": "https://fhir.org/FHIRHub/RelatedPerson/3be2494c-0f6e-45ae-9d70-104ca0f5b3f4",
      "resource": {
        "resourceType": "RelatedPerson",
        "id": "3be2494c-0f6e-45ae-9d70-104ca0f5b3f4",
        "active": true,
        "patient": {
          "reference": "https://fhir.org/FHIRHub/Patient/1b0eeddf-83df-478a-b09d-15becfb2291e"
        },
        "relationship": [
          {
            "coding": [
              {
                "system": "http://terminology.hl7.org/CodeSystem/v3-RoleCode",
                "code": "SPS",
                "display": "SPO"
              }
            ]
          }
        ],
        "name": [
          {
            "family": "DOE",
            "given": [
              "JANE"
            ]
          }
        ],
        "telecom": [
          {
            "system": "phone",
            "value": "(555)555-5678",
            "use": "home"
          }
        ]
      },
      "request": {
        "method": "POST",
        "url": "RelatedPerson"
      }
    },
    {
      "fullUrl": "https://fhir.org/FHIRHub/Procedure/053aebd1-700e-491c-aa72-efdaa40a1fdd",
      "resource": {
        "resourceType": "Procedure",
        "id": "053aebd1-700e-491c-aa72-efdaa40a1fdd",
        "status": "completed",
        "code": {
          "coding": [
            {
              "system": "http://terminology.hl7.org/CodeSystem/v3-ActCode",
              "code": "CBC^COMPLETE BLOOD COUNT^L",
              "display": "CBC^COMPLETE BLOOD COUNT^L"
            }
          ]
        },
        "subject": {
          "reference": "https://fhir.org/FHIRHub/Patient/1b0eeddf-83df-478a-b09d-15becfb2291e"
        },
        "encounter": {
          "reference": "https://fhir.org/FHIRHub/Encounter/ae3941b6-e61c-415d-a2c5-36ad47c840a2"
        },
        "performedDateTime": "2023-02-28T09:01:45+00:00"
      },
      "request": {
        "method": "POST",
        "url": "Procedure"
      }
    }
  ]
}